time,gx,gy,gz,ax,ay,az,Mag_X,Mag_Y,Mag_Z,p
427438,-0.122685,0.023707,-0.026024,0.979467551,0.040950306,0.188952347,-0.098548,-0.429099,0.332797,1016.549011
427538,-0.134958,0.017198,-0.019977,0.982748163,0.05339,0.190472245,-0.099078,-0.431156,0.334194,1016.549011
427638,-0.144181,0.005268,-0.013923,0.983917449,0.068552755,0.192806939,-0.099569,-0.432619,0.333618,1016.549011
427738,-0.148906,-0.008941,-0.013105,0.984539694,0.07189551,0.199194286,-0.100619,-0.436709,0.335913,1016.549011
427838,-0.142508,-0.016408,-0.016543,0.986830612,0.061770306,0.206960306,-0.102634,-0.438719,0.336811,1016.550781
427938,-0.134402,0.004726,-0.023235,0.989112449,0.045227755,0.208210816,-0.102229,-0.438968,0.341809,1016.550781
428038,-0.127693,0.039375,-0.032019,0.980924082,0.028474082,0.202199286,-0.105204,-0.441861,0.340656,1016.550781
428138,-0.1256,0.048107,-0.041049,0.967376531,0.018957143,0.181912857,-0.108729,-0.447359,0.341875,1016.550781
428238,-0.124173,0.034937,-0.038468,0.968021837,0.024084898,0.19077051,-0.107782,-0.444031,0.345052,1016.550781
428338,-0.121234,0.020173,-0.032754,0.974506735,0.036121122,0.201008469,-0.108806,-0.449046,0.345797,1016.550781
428438,-0.122296,-0.005294,-0.024535,0.978581837,0.044699184,0.208277653,-0.111346,-0.45112,0.348194,1016.550781
428538,-0.131176,-0.033266,-0.016033,0.983603265,0.050859592,0.222389184,-0.110864,-0.455138,0.34849,1016.550781
428638,-0.130026,-0.036288,-0.00986,0.98924398,0.046260306,0.22863398,-0.110944,-0.457822,0.352362,1016.550781
428738,-0.127979,-0.021956,-0.008669,0.987740306,0.040792755,0.221755816,-0.112465,-0.457372,0.353886,1016.550781
428838,-0.122864,0.002327,-0.010658,0.980626531,0.034377143,0.210117653,-0.114008,-0.458963,0.356309,1016.550781
428938,-0.114188,0.005563,-0.013458,0.974624898,0.032128571,0.200314694,-0.11608,-0.461615,0.36018,1016.550781
429038,-0.104376,0.001791,-0.015564,0.975105,0.034436327,0.204864184,-0.115143,-0.463769,0.363077,1016.550781
429138,-0.097773,-0.009467,-0.014387,0.979118367,0.03940602,0.204897347,-0.11569,-0.465376,0.3655,1016.550781
429238,-0.09006,-0.027172,-0.017281,0.982512245,0.03956449,0.214514592,-0.118758,-0.468012,0.36937,1016.550781
429338,-0.082781,-0.045393,-0.019457,0.984394082,0.032863265,0.224246122,-0.118357,-0.470752,0.374241,1016.550781
429438,-0.073013,-0.057617,-0.027598,0.984902143,0.02692102,0.236113878,-0.116933,-0.473436,0.377613,1016.55011
429538,-0.059709,-0.050132,-0.036116,0.985703878,0.02242949,0.243847347,-0.113526,-0.477171,0.381435,1016.55011
429638,-0.048915,-0.038009,-0.041055,0.981361224,0.026286224,0.239137449,-0.111107,-0.480867,0.384757,1016.55011
429738,-0.048489,-0.038334,-0.039332,0.975180102,0.028391939,0.226239184,-0.111679,-0.480553,0.38878,1016.55011
429838,-0.052023,-0.061474,-0.040689,0.969290306,0.032308673,0.215663571,-0.106792,-0.486828,0.392976,1016.55011
429938,-0.06386,-0.098315,-0.041232,0.971213163,0.030482347,0.215108367,-0.104406,-0.488129,0.398423,1016.55011
430038,-0.065398,-0.131477,-0.044204,0.970231939,0.020459082,0.221566531,-0.101548,-0.49397,0.404642,1016.55011
430138,-0.054348,-0.155568,-0.050235,0.970574694,0.007574694,0.229476224,-0.100662,-0.498735,0.409912,1016.55011
430238,-0.033634,-0.162635,-0.055829,0.977600102,0.006872143,0.229850714,-0.09582,-0.504133,0.416656,1016.55011
430338,-0.024323,-0.161583,-0.064768,0.983000816,0.022527857,0.223462551,-0.094944,-0.508922,0.422426,1016.55011
430438,-0.027929,-0.148578,-0.065918,0.981592347,0.02295102,0.215008163,-0.092581,-0.51326,0.428721,1016.55011
430538,-0.039728,-0.134578,-0.051983,0.984168163,0.050807653,0.202600306,-0.08982,-0.521335,0.439836,1016.55011
430638,-0.055499,-0.127167,-0.060919,0.98364898,0.044192755,0.201783571,-0.091957,-0.529612,0.446426,1016.55011
430738,-0.051299,-0.111112,-0.05169,0.986938265,0.040744082,0.204077551,-0.09357,-0.533863,0.45222,1016.55011
430838,-0.056567,-0.088345,-0.045613,0.99627898,0.026685816,0.192573367,-0.091708,-0.539689,0.458439,1016.55011
430938,-0.054785,-0.064204,-0.043717,0.972654592,0.020230102,0.19487051,-0.094835,-0.544463,0.465206,1016.55011
431038,-0.039257,-0.062424,-0.043383,0.971762143,0.022558571,0.193649796,-0.093473,-0.551276,0.471374,1016.55011
431138,-0.011595,-0.067153,-0.051287,0.973767347,0.028865612,0.205220714,-0.094074,-0.556491,0.476118,1016.55011
431238,0.019754,-0.072784,-0.058941,0.976266429,0.039024898,0.212131429,-0.09171,-0.560332,0.482439,1016.55011
431338,0.052182,-0.063012,-0.073261,0.978682143,0.042047755,0.214407143,-0.093372,-0.5657,0.490681,1016.55011
431438,0.078256,-0.05036,-0.08193,0.975954286,0.042057959,0.217542449,-0.092951,-0.567395,0.494603,1016.55011
431538,0.087602,-0.033456,-0.08503,0.971020816,0.037734796,0.213154082,-0.087617,-0.571331,0.501924,1016.55011
431638,0.080418,-0.017187,-0.077632,0.970775918,0.033224898,0.211272347,-0.085245,-0.575645,0.507719,1016.55011
431738,0.065957,-0.003252,-0.067025,0.971129388,0.031925102,0.206758061,-0.085806,-0.579768,0.510514,1016.55011
431838,0.046693,0.004283,-0.048143,0.973490408,0.032823776,0.202079082,-0.082954,-0.58364,0.517335,1016.55011
431938,0.031728,0.015224,-0.034788,0.978126122,0.037659694,0.203751531,-0.078083,-0.588468,0.522606,1016.55011
432038,0.022599,0.022167,-0.024415,0.981323673,0.045171429,0.207144694,-0.074168,-0.591191,0.525979,1016.55011
432138,0.029078,0.029889,-0.018933,0.983185918,0.054226939,0.209962041,-0.074244,-0.597338,0.529172,1016.55011
432238,0.040284,0.041253,-0.013764,0.983568367,0.063067041,0.212660102,-0.07231,-0.599009,0.532095,1016.55011
432338,0.061635,0.053866,-0.01031,0.981692959,0.068341327,0.212201122,-0.069833,-0.601563,0.532469,1016.55011
432438,0.077507,0.068483,-0.009274,0.982689694,0.071053061,0.210715816,-0.065845,-0.600132,0.532547,1016.55011
432538,0.077557,0.083224,-0.007146,0.978084592,0.065483265,0.207133163,-0.068446,-0.604841,0.537815,1016.55011
432638,0.06057,0.085734,-0.007167,0.979837041,0.057742245,0.201325,-0.064493,-0.602012,0.539968,1016.55188
432738,0.042783,0.079136,-0.004863,0.982684898,0.048927449,0.201235102,-0.060962,-0.602943,0.537419,1016.55188
432838,0.032937,0.07371,-0.006747,0.98542602,0.045922959,0.197317347,-0.05797,-0.601496,0.537496,1016.55188
432938,0.029911,0.0684,-0.006811,0.986346735,0.048752143,0.192916939,-0.053397,-0.597862,0.533177,1016.55188
433038,0.029917,0.057619,-0.008743,0.985058367,0.057114796,0.192964898,-0.04784,-0.595764,0.529282,1016.55188
433138,0.027945,0.044565,-0.011012,0.980240306,0.069164388,0.196097041,-0.040784,-0.591198,0.525515,1016.55188
433238,0.013044,0.036154,-0.013063,0.979464592,0.077587143,0.195677653,-0.030572,-0.581287,0.513505,1016.55188
433338,-0.003713,0.033857,-0.013114,0.983248571,0.078870918,0.199688367,-0.023993,-0.575171,0.508814,1016.55188
433438,-0.01393,0.040634,-0.007926,0.97973398,0.072137347,0.200192857,-0.023908,-0.564041,0.505874,1016.55188
433538,-0.015192,0.044921,-0.004698,0.975706429,0.062218673,0.197970204,-0.032848,-0.559865,0.505075,1016.55188
433638,-0.006175,0.041493,-0.008347,0.972403163,0.052583061,0.205282857,-0.046854,-0.555826,0.508773,1016.55188
433738,0.012064,0.032205,-0.012569,0.97106949,0.043394796,0.211327551,-0.067806,-0.552103,0.510943,1016.55188
433838,0.033466,0.012626,-0.018181,0.968096327,0.032808673,0.211860102,-0.086387,-0.553192,0.518884,1016.55188
433938,0.037254,-0.005885,-0.023432,0.971326122,0.034372347,0.208030204,-0.108443,-0.552708,0.526399,1016.55188
434038,0.045895,-0.007837,-0.02439,0.980025408,0.038174898,0.205013571,-0.130012,-0.553251,0.534364,1016.55188
434138,0.058646,0.007524,-0.020523,0.984048367,0.050447449,0.201147755,-0.152131,-0.556897,0.544675,1016.55188
434238,0.059496,0.016685,-0.01708,0.983244898,0.059168571,0.194285612,-0.175218,-0.560455,0.553487,1016.55188
434338,0.056384,0.009767,-0.013157,0.979583061,0.063393367,0.197048265,-0.191306,-0.565047,0.56075,1016.55188
434438,0.057635,-0.002592,-0.01392,0.978291429,0.058782959,0.206799184,-0.20339,-0.569654,0.567016,1016.55188
434538,0.060813,-0.011667,-0.015439,0.976189796,0.053087347,0.207112041,-0.211451,-0.574229,0.571283,1016.55188
434638,0.055556,-0.018797,-0.017492,0.974730408,0.047366429,0.203914694,-0.213511,-0.580818,0.573951,1016.55188
434738,0.053062,-0.023054,-0.019256,0.972951531,0.052751837,0.196737041,-0.21555,-0.585865,0.575695,1016.55188
434838,0.050579,-0.026198,-0.017345,0.972037347,0.066033571,0.191382143,-0.217638,-0.593026,0.579837,1016.55188
434938,0.050007,-0.030296,-0.016933,0.976369898,0.075671122,0.192025306,-0.218195,-0.594657,0.58276,1016.55188
435038,0.05257,-0.032808,-0.014221,0.982498265,0.076093673,0.193982245,-0.225237,-0.601666,0.585401,1016.55188
435138,0.050421,-0.037556,-0.013456,0.982333061,0.067515,0.198213265,-0.221329,-0.603417,0.589324,1016.55188
435238,0.045248,-0.037507,-0.010055,0.982336735,0.059043163,0.203314592,-0.224825,-0.608344,0.589069,1016.55188
435338,0.043118,-0.03387,-0.006495,0.98223898,0.051846837,0.204322347,-0.225378,-0.607982,0.592093,1016.55188
435438,0.044487,-0.032556,-0.004895,0.978010714,0.046219082,0.198023878,-0.227402,-0.605057,0.594244,1016.55188
435538,0.046366,-0.031069,-0.004713,0.974669592,0.044161633,0.197720306,-0.223817,-0.601882,0.589399,1016.55188
435638,0.047824,-0.03206,-0.001175,0.977532041,0.049287551,0.199551531,-0.21634,-0.599012,0.589554,1016.55188
435738,0.046152,-0.032142,-0.001638,0.982962245,0.053817653,0.200134082,-0.206794,-0.594983,0.585762,1016.55188
435838,0.041614,-0.022094,-0.001106,0.98581102,0.064429082,0.196287143,-0.200208,-0.590337,0.580495,1016.549561
435938,0.040385,-0.027288,-0.000481,0.984205,0.073755714,0.204370816,-0.189611,-0.581222,0.574458,1016.549561
436038,0.037652,-0.022231,-0.005545,0.990223163,0.07900898,0.202729694,-0.182494,-0.57402,0.567818,1016.549561
436138,0.031938,-0.005255,-0.01091,0.988915714,0.073731939,0.194233878,-0.178445,-0.568957,0.565075,1016.549561
436238,0.023582,0.004538,-0.015086,0.983443265,0.070481429,0.192575918,-0.175267,-0.56207,0.55591,1016.549561
436338,0.017103,0.007991,-0.020482,0.975200816,0.061010408,0.192272755,-0.179632,-0.552765,0.550868,1016.549561
436438,0.008514,0.011214,-0.021284,0.967342245,0.055202959,0.194598367,-0.181618,-0.54379,0.551824,1016.549561
436538,0.005428,0.010962,-0.018712,0.964618061,0.054038878,0.191665102,-0.182956,-0.533938,0.544809,1016.549561
436638,0.006217,0.006896,-0.017842,0.967655102,0.05837949,0.188443673,-0.185383,-0.52927,0.542038,1016.549561
436738,0.012593,-0.000897,-0.014839,0.971389286,0.057559898,0.189832245,-0.191252,-0.520465,0.53747,1016.549561
436838,0.021631,-0.008789,-0.015277,0.973694796,0.055623673,0.193379796,-0.197223,-0.516882,0.537646,1016.549561
436938,0.031477,-0.006961,-0.014449,0.97845898,0.052190714,0.197404796,-0.203118,-0.512111,0.533875,1016.549561
437038,0.037866,-0.004885,-0.013533,0.982802143,0.055332041,0.201696837,-0.208598,-0.507065,0.534627,1016.549561
437138,0.035798,-0.003533,-0.013697,0.982445204,0.061776327,0.207281429,-0.213539,-0.504897,0.532728,1016.549561
437238,0.030367,-0.006519,-0.010586,0.98442051,0.071414898,0.20563449,-0.219994,-0.498792,0.532531,1016.549561
437338,0.027381,-0.007346,-0.009169,0.983934082,0.080905204,0.20232398,-0.225965,-0.495209,0.532706,1016.549561
437438,0.018693,-0.008244,-0.01001,0.982721633,0.081114082,0.196498265,-0.230948,-0.495628,0.53268,1016.549561
437538,0.01524,-0.010892,-0.010713,0.979759082,0.073051224,0.19203102,-0.233415,-0.49305,0.531806,1016.549561
437638,0.01796,-0.020325,-0.010274,0.97623449,0.05976,0.189392551,-0.235299,-0.489265,0.526486,1016.549561
437738,0.027567,-0.030909,-0.010102,0.978873265,0.048537755,0.193667245,-0.236302,-0.487779,0.527061,1016.549561
437838,0.037521,-0.028278,-0.007191,0.981779082,0.042295204,0.195577245,-0.233706,-0.486059,0.521641,1016.549561
437938,0.044389,-0.014541,-0.004669,0.978581429,0.039868163,0.192772653,-0.228689,-0.481582,0.520371,1016.549561
438038,0.038662,-0.01038,-0.005536,0.97299551,0.046494796,0.191658878,-0.223532,-0.476743,0.511605,1016.549561
438138,0.034147,-0.012264,-0.001162,0.972368367,0.060057755,0.195031327,-0.214987,-0.47519,0.507685,1016.549561
438238,0.026038,-0.012554,0.001896,0.973339796,0.075670306,0.195328878,-0.205873,-0.469989,0.500445,1016.549561
438338,0.020446,-0.017406,0.005612,0.977153265,0.086672551,0.197813571,-0.196731,-0.465214,0.49168,1016.549561
438438,0.011303,-0.030235,0.007873,0.980583469,0.088642449,0.198548571,-0.185588,-0.460944,0.482391,1016.549561
438538,0.002674,-0.041557,0.005537,0.980809694,0.083626429,0.202908878,-0.174469,-0.454256,0.474727,1016.549561
438638,0.001551,-0.040539,0.004642,0.987961122,0.072990714,0.202116224,-0.167828,-0.449963,0.466436,1016.549561
438738,0.017961,-0.031935,0.001371,0.988077959,0.069422959,0.196551429,-0.163165,-0.442626,0.457796,1016.549561
438838,0.029819,-0.024362,-0.002617,0.98469949,0.060919184,0.184312653,-0.161483,-0.436213,0.448605,1016.549561
438938,0.034607,-0.014308,-0.003503,0.980962653,0.056568776,0.180426633,-0.161864,-0.432429,0.442785,1016.549561
439038,0.035997,-0.017557,-0.005344,0.975212959,0.054914286,0.183613367,-0.160167,-0.428459,0.432468,1016.549561
439138,0.029847,-0.034212,-0.006028,0.972183265,0.058064184,0.187403878,-0.161478,-0.419034,0.423928,1016.549561
439238,0.006545,-0.056046,-0.000875,0.973960918,0.060732551,0.193162857,-0.160303,-0.412139,0.415262,1016.549561
439338,-0.006116,-0.062987,0.004221,0.975179796,0.065776122,0.203098776,-0.161161,-0.407302,0.408493,1016.549561
439438,-0.005746,-0.047238,0.008476,0.978086939,0.073572347,0.204134796,-0.163485,-0.402369,0.400224,1016.549561
439538,-0.000145,-0.022857,0.008964,0.978257449,0.07572449,0.192849796,-0.164811,-0.395957,0.392032,1016.549561
439638,0.012033,-0.011423,0.008257,0.979365102,0.074237245,0.191526531,-0.169204,-0.392181,0.38771,1016.549561
439738,0.024883,-0.008646,0.00808,0.983693469,0.068663061,0.195162041,-0.173061,-0.38782,0.381415,1016.549561
439838,0.034094,-0.012936,0.00479,0.987016327,0.06220102,0.191950408,-0.180469,-0.383571,0.378617,1016.549561
439938,0.038599,-0.02564,0.003668,0.986606122,0.061833061,0.18782602,-0.184874,-0.380816,0.374744,1016.549561
440038,0.038737,-0.041801,-9.40E-05,0.990797653,0.062056429,0.183041429,-0.18827,-0.377056,0.370423,1016.549561
440138,0.036871,-0.05447,-0.00416,0.986363878,0.060280204,0.181178673,-0.196655,-0.376705,0.365922,1016.549561
440238,0.035721,-0.055924,-0.009116,0.980578571,0.059817041,0.17936602,-0.2025,-0.36982,0.359753,1016.549561
440338,0.034365,-0.052307,-0.014127,0.975811837,0.058358163,0.177897959,-0.202394,-0.367562,0.354356,1016.549561
440438,0.031737,-0.047668,-0.017569,0.971561939,0.061179898,0.178554388,-0.20625,-0.362702,0.348086,1016.549561
440538,0.033675,-0.045562,-0.016538,0.97214551,0.068358469,0.178678878,-0.205116,-0.358394,0.341293,1016.549561
440638,0.035189,-0.046683,-0.015764,0.977752857,0.072954388,0.181089694,-0.205452,-0.355984,0.332897,1016.547302
440738,0.034226,-0.052372,-0.011803,0.978034184,0.072051939,0.182702041,-0.203811,-0.351661,0.325604,1016.547302
440838,0.035085,-0.052946,-0.00561,0.984699184,0.067741429,0.186292449,-0.205113,-0.34271,0.316539,1016.547302
440938,0.040947,-0.050113,-0.001147,0.990327449,0.064465918,0.187966531,-0.199465,-0.341367,0.307595,1016.547302
441038,0.040775,-0.046789,0.000943,0.990268673,0.06464051,0.189094796,-0.197761,-0.332913,0.297506,1016.547302
441138,0.030349,-0.041207,-0.001248,0.99145898,0.058001735,0.185642755,-0.194105,-0.32658,0.289315,1016.547302
441238,0.018512,-0.041436,-0.001559,0.985863163,0.061751939,0.18354449,-0.189837,-0.318472,0.275203,1016.547302
441338,0.015309,-0.046739,0.001207,0.987779184,0.068055102,0.18043898,-0.181177,-0.315135,0.265363,1016.547302
441438,0.017917,-0.037168,0.007817,0.99030102,0.074581939,0.168751939,-0.175443,-0.307122,0.25275,1016.547302
441538,0.016802,-0.027528,0.013299,0.989052245,0.079052653,0.166001531,-0.170222,-0.297655,0.241214,1016.547302
441638,0.020032,-0.033447,0.015929,0.983478163,0.079176224,0.167864694,-0.16353,-0.290751,0.23055,1016.547302
441738,0.023981,-0.042713,0.017809,0.984054082,0.075124592,0.174904796,-0.159249,-0.280626,0.21604,1016.547302
441838,0.024864,-0.04572,0.018736,0.983790918,0.071592959,0.177295612,-0.153043,-0.272195,0.204953,1016.547302
441938,0.020234,-0.041822,0.015477,0.982777551,0.070238776,0.176268265,-0.143874,-0.262389,0.195442,1016.547302
442038,0.012512,-0.030417,0.012572,0.979454796,0.068952551,0.173181939,-0.135135,-0.255871,0.181755,1016.547302
442138,0.007865,-0.02899,0.015165,0.976037143,0.06538949,0.168249388,-0.125978,-0.247583,0.172668,1016.547302
442238,0.00806,-0.030445,0.014701,0.974024082,0.064299184,0.169934082,-0.11878,-0.24166,0.161454,1016.549011
442338,0.013128,-0.033145,0.015838,0.974286633,0.062892449,0.171744592,-0.107605,-0.234827,0.150792,1016.549011
442438,0.021196,-0.033723,0.016893,0.984200816,0.063205816,0.175973673,-0.099962,-0.227062,0.142679,1016.549011
442538,0.024278,-0.029275,0.022045,0.984605102,0.062464082,0.174349388,-0.091905,-0.220021,0.139039,1016.549011
442638,0.016673,-0.028575,0.021307,0.983637755,0.064869592,0.172567041,-0.078774,-0.212818,0.130402,1016.549011
442738,0.002288,-0.032105,0.020081,0.986480306,0.063657347,0.166773469,-0.064644,-0.204136,0.121842,1016.549011
442838,-0.016196,-0.032917,0.018302,0.987519694,0.064797551,0.161266735,-0.052565,-0.197061,0.116203,1016.549011
442938,-0.030398,-0.029699,0.019669,0.987689898,0.064762653,0.158752755,-0.034021,-0.19111,0.111016,1016.549011
443038,-0.039588,-0.036924,0.021514,0.987194796,0.066194184,0.159863878,-0.013494,-0.184716,0.106354,1016.549011
443138,-0.039268,-0.037742,0.023345,0.988164388,0.068999082,0.164934388,0.003017,-0.175366,0.103844,1016.549011
443238,-0.029065,-0.033463,0.02736,0.990307449,0.069067755,0.168518163,0.026026,-0.168538,0.099708,1016.549011
443338,-0.018746,-0.02771,0.029169,0.991127041,0.064448776,0.167134592,0.053906,-0.161579,0.101597,1016.549011
443438,-0.019222,-0.022335,0.028536,0.985733469,0.057305,0.169755306,0.074802,-0.155032,0.103958,1016.549011
443538,-0.027929,-0.019589,0.025296,0.98052102,0.050033571,0.167782551,0.095575,-0.150293,0.112741,1016.549011
443638,-0.03779,-0.021181,0.022714,0.980454184,0.049736224,0.168011939,0.122342,-0.146099,0.120501,1016.549011
443738,-0.044397,-0.0186,0.022062,0.981971327,0.053896327,0.165060204,0.142136,-0.141794,0.128258,1016.549011
443838,-0.043644,-0.012187,0.021278,0.982638265,0.063314898,0.164050408,0.162845,-0.141683,0.13981,1016.549011
443938,-0.042252,-0.01284,0.021958,0.983719898,0.068282347,0.166454388,0.182528,-0.142127,0.152837,1016.549011
444038,-0.034595,-0.00798,0.02402,0.988146735,0.07726449,0.169458571,0.195164,-0.142654,0.16986,1016.549011
444138,-0.027414,0.000731,0.026767,0.98778602,0.079002449,0.165781633,0.204855,-0.144008,0.184332,1016.549011
444238,-0.030079,-0.009635,0.02432,0.982572143,0.075053571,0.161518061,0.214068,-0.144809,0.197829,1016.549011
444338,-0.033399,-0.029363,0.019557,0.982368571,0.066878367,0.163357041,0.219815,-0.149467,0.209624,1016.549011
444438,-0.034322,-0.0418,0.010468,0.982436735,0.049444388,0.168757449,0.221739,-0.146703,0.213775,1016.549011
444538,-0.05498,-0.039086,0.005088,0.977818571,0.037074796,0.163442959,0.225593,-0.147103,0.220773,1016.549011
444638,-0.060989,-0.036716,0.004738,0.975398571,0.034386735,0.162348367,0.228045,-0.147737,0.222748,1016.549011
444738,-0.049764,-0.019493,0.007438,0.977207959,0.043196837,0.159977143,0.230984,-0.144939,0.2259,1016.549011
444838,-0.030984,-0.006178,0.014942,0.975403367,0.051589082,0.153621633,0.23193,-0.14657,0.228323,1016.549011
444938,-0.018523,-0.008415,0.02157,0.978145,0.056377245,0.15666898,0.234479,-0.145469,0.225376,1016.549011
445038,-0.008294,-0.021449,0.028064,0.983795612,0.058797449,0.163770204,0.23301,-0.141411,0.224579,1016.549011
445138,-0.000667,-0.039902,0.029215,0.992076531,0.060457857,0.164774592,0.235571,-0.138293,0.221234,1016.549011
445238,0.001567,-0.056963,0.026401,0.991682449,0.057834082,0.166667245,0.23611,-0.136211,0.219336,1016.549011
445338,0.004726,-0.069613,0.020782,0.992402755,0.056556327,0.168210306,0.236137,-0.131181,0.218591,1016.549011
445438,0.013183,-0.068025,0.01203,0.99172,0.057133673,0.169425714,0.236144,-0.132652,0.218015,1016.549011
445538,0.020619,-0.04893,0.005672,0.986603061,0.05695898,0.165647041,0.235147,-0.128176,0.218743,1016.549011
445638,0.020824,-0.027255,-0.000373,0.981727041,0.054412347,0.163259388,0.237517,-0.12803,0.225266,1016.549011
445738,0.009752,-0.013578,-0.001629,0.976537551,0.048973571,0.158683469,0.238918,-0.128295,0.230265,1016.549011
445838,0.008458,-0.015454,-0.001165,0.973729184,0.045569694,0.157078367,0.238807,-0.128584,0.236262,1016.549011
445938,0.009505,-0.02661,0.004498,0.977590306,0.044466531,0.160955408,0.241194,-0.129386,0.241736,1016.549011
446038,0.010878,-0.035764,0.009737,0.978978469,0.048665612,0.164417449,0.243954,-0.133001,0.25358,1016.549011
446138,0.008316,-0.043797,0.014825,0.984129082,0.049605408,0.168574898,0.245369,-0.135709,0.257452,1016.549011
446238,0.00827,-0.042504,0.018657,0.98884051,0.051926633,0.171707551,0.246625,-0.139822,0.269769,1016.549011
446338,0.012104,-0.038722,0.023892,0.99458051,0.057392755,0.167381837,0.249344,-0.145526,0.28351,1016.549011
446438,0.015175,-0.035397,0.022663,0.99653602,0.058106531,0.164776939,0.250558,-0.14677,0.29848,1016.549011
446538,0.01366,-0.026969,0.017639,0.994810204,0.053162959,0.159961531,0.252831,-0.154315,0.309121,1016.549011
446638,0.016105,-0.032536,0.013598,0.987513061,0.048232959,0.161531327,0.254991,-0.158187,0.326462,1016.549011
446738,0.019011,-0.037546,0.010246,0.986994286,0.047916327,0.156951735,0.254723,-0.162847,0.340253,1016.549011
446838,0.021856,-0.038136,0.00565,0.982759184,0.051905,0.156244184,0.254988,-0.163457,0.352749,1016.549011
446938,0.022299,-0.049422,0.004406,0.978636837,0.052691531,0.15880551,0.259252,-0.167071,0.364093,1016.549011
447038,0.028748,-0.062519,0.009072,0.980780408,0.053910204,0.163097245,0.258548,-0.168092,0.375063,1016.549011
447138,0.030128,-0.061965,0.011407,0.986729592,0.057059184,0.166582959,0.257869,-0.171032,0.384433,1016.549011
447238,0.030838,-0.050983,0.014498,0.987416939,0.057332245,0.163644286,0.258118,-0.170196,0.398003,1016.549011
447338,0.026395,-0.039493,0.014761,0.987338163,0.053516224,0.158413878,0.259422,-0.167736,0.408652,1016.549011
447438,0.019195,-0.036577,0.015813,0.984065714,0.049942143,0.153220612,0.259267,-0.166152,0.41725,1016.549011
447538,0.014128,-0.042351,0.014967,0.981057041,0.048187245,0.151592755,0.259634,-0.167494,0.424197,1016.549011
447638,0.010552,-0.052528,0.017243,0.978623776,0.043235,0.152518367,0.257475,-0.166899,0.433244,1016.549011
447738,0.008873,-0.066026,0.018876,0.981569388,0.046317653,0.154387449,0.257272,-0.166433,0.44429,1016.549011
447838,0.010347,-0.07135,0.025254,0.985004796,0.051627959,0.157880408,0.257619,-0.167822,0.452237,1016.549011
447938,0.020151,-0.072454,0.02821,0.989310102,0.056223163,0.161010612,0.253409,-0.169333,0.46418,1016.549011
448038,0.027438,-0.067227,0.03338,0.987211122,0.058891429,0.160553673,0.252673,-0.172917,0.476522,1016.549011
448138,0.032019,-0.064606,0.033269,0.986489796,0.057267959,0.158659694,0.245933,-0.175482,0.490413,1016.549011
448238,0.036689,-0.066077,0.032463,0.986198878,0.054832041,0.156544184,0.242709,-0.177531,0.502831,1016.549011
448338,0.035456,-0.066727,0.032412,0.988669388,0.054883571,0.154819184,0.236402,-0.180272,0.520221,1016.549011
448438,0.029526,-0.061169,0.031949,0.98972602,0.055531429,0.151784388,0.23006,-0.187071,0.538907,1016.549011
448538,0.005366,-0.054902,0.027331,0.988812551,0.061535918,0.148995204,0.221176,-0.191483,0.560718,1016.549011
448638,-0.001585,-0.045276,0.027496,0.983841837,0.060695612,0.14137102,0.212255,-0.201449,0.583749,1016.549011
448738,-0.002955,-0.05139,0.028996,0.97974898,0.056709694,0.136152551,0.195791,-0.20404,0.611656,1016.549011
448838,-0.003004,-0.061363,0.033329,0.980512755,0.054144694,0.136672653,0.177252,-0.211275,0.643334,1016.549011
448938,0.001414,-0.071968,0.033064,0.986400306,0.053109898,0.139250306,0.156152,-0.221629,0.678356,1016.549011
449038,0.002124,-0.084656,0.033184,0.985359286,0.051521939,0.145321837,0.131654,-0.22922,0.709006,1016.549011
449138,0.002301,-0.097774,0.033415,0.983964388,0.04770051,0.149898571,0.115181,-0.236793,0.73666,1016.549011
449238,-0.00283,-0.105232,0.030634,0.986404184,0.044323367,0.154861224,0.101882,-0.244928,0.754268,1016.549011
449338,-0.001751,-0.096215,0.029105,0.994468367,0.04336102,0.154886327,0.08909,-0.24759,0.772156,1016.549011
449438,0.001867,-0.068637,0.030386,0.997346531,0.04781398,0.153052857,0.07725,-0.25435,0.791839,1016.549011
449538,0.007335,-0.050652,0.030803,0.989124286,0.048808469,0.144551735,0.063404,-0.258138,0.812674,1016.549011
449638,0.010661,-0.060935,0.030536,0.980665,0.050366837,0.132523878,0.053047,-0.260984,0.833561,1016.549011
449738,0.012275,-0.083278,0.032086,0.980330306,0.051668367,0.138939388,0.042304,-0.263534,0.848451,1016.549011
449838,0.002646,-0.099654,0.031321,0.979766122,0.051389388,0.140035204,0.038514,-0.267238,0.864291,1016.549011
449938,-0.006657,-0.107249,0.031502,0.982965408,0.052197041,0.14249051,0.036777,-0.268339,0.87726,1016.549011
450038,-0.012105,-0.093095,0.03332,0.991365102,0.055762143,0.141660714,0.031983,-0.271055,0.893651,1016.549011
450138,-0.016798,-0.069545,0.033359,0.990518367,0.062927041,0.135429286,0.033792,-0.269576,0.903749,1016.549011
450238,-0.027714,-0.060258,0.030625,0.988570612,0.065675816,0.140692041,0.029564,-0.270637,0.916717,1016.549011
450338,-0.029207,-0.069897,0.028069,0.983906327,0.064190306,0.138464694,0.030904,-0.269077,0.925316,1016.544983
450438,-0.024291,-0.084078,0.025085,0.983808265,0.060046122,0.141258163,0.032737,-0.270515,0.933763,1016.544983
450538,-0.018354,-0.098643,0.024874,0.987068469,0.054132653,0.139629796,0.036068,-0.274443,0.941583,1016.544983
450638,-0.01037,-0.110022,0.022305,0.989218571,0.050151735,0.138289796,0.045953,-0.27133,0.946262,1016.544983
450738,-0.014516,-0.115363,0.021753,0.987283776,0.044005408,0.135315918,0.053267,-0.27136,0.954786,1016.544983
450838,-0.029412,-0.113219,0.020912,0.989743265,0.044040306,0.132677857,0.057151,-0.27119,0.960311,1016.544983
450938,-0.058012,-0.098704,0.024333,0.994710102,0.047584388,0.130450612,0.062488,-0.273133,0.967733,1016.544983
451038,-0.089918,-0.073377,0.027593,0.99056449,0.050586633,0.127473673,0.066396,-0.274883,0.971657,1016.544983
451138,-0.116304,-0.05773,0.031442,0.984316224,0.057902857,0.120685612,0.070289,-0.279647,0.975927,1016.544983
451238,-0.138348,-0.048,0.034114,0.985472041,0.074937449,0.115887551,0.073613,-0.282603,0.984298,1016.544983
451338,-0.135766,-0.054283,0.031609,0.986854796,0.08413398,0.114748469,0.078073,-0.285214,0.985172,1016.544983
451438,-0.126804,-0.071701,0.026351,0.990967857,0.09431898,0.120759796,0.081505,-0.284915,0.988197,1016.544983
451538,-0.120281,-0.082758,0.023803,0.996767245,0.087645204,0.128821224,0.082914,-0.29111,0.991892,1016.544983
451638,-0.121389,-0.086368,0.017552,0.998017755,0.069711531,0.137645408,0.084847,-0.293279,0.99479,1016.544983
451738,-0.126847,-0.084141,0.009911,0.991504184,0.052397041,0.14040051,0.087785,-0.295938,0.997163,1016.544983
451838,-0.147436,-0.084088,-0.000504,0.98850398,0.035565816,0.145782551,0.088721,-0.293133,1.000814,1016.544983
451938,-0.161077,-0.071586,-0.008214,0.987851939,0.028901939,0.135082959,0.089141,-0.295327,1.004711,1016.544983
452038,-0.171091,-0.068324,-0.009222,0.981629388,0.037739796,0.129155816,0.093469,-0.299271,1.012531,1016.544983
452138,-0.176722,-0.05804,-0.007017,0.979302347,0.048546939,0.120469082,0.088367,-0.304463,1.018273,1016.544983
452238,-0.178418,-0.056956,-0.00387,0.976071633,0.056046224,0.118953367,0.086121,-0.306576,1.031691,1016.544983
452338,-0.179502,-0.077575,0.007549,0.977571531,0.053021327,0.124751939,0.075882,-0.310604,1.046005,1016.544983
452438,-0.182844,-0.104709,0.017432,0.984546837,0.048319184,0.137472857,0.064633,-0.312174,1.061444,1016.544983
452538,-0.189786,-0.119933,0.024764,0.997871429,0.042275918,0.146549796,0.054797,-0.317945,1.08068,1016.544983
452638,-0.191772,-0.1155,0.024971,1.008186633,0.036012143,0.148115,0.044417,-0.32333,1.102439,1016.544983
452738,-0.190628,-0.109136,0.020081,1.014045102,0.027758878,0.143414286,0.028577,-0.328083,1.123223,1016.544983
452838,-0.178986,-0.098473,0.009016,1.017995918,0.021861633,0.136569592,0.019791,-0.329764,1.140163,1016.544983
452938,-0.163368,-0.081376,-0.005531,1.012380102,0.012827755,0.124890612,0.007927,-0.334105,1.161473,1016.544983
453038,-0.148543,-0.055839,-0.017811,1.002323673,-0.000738776,0.116487551,0.001071,-0.339449,1.181235,1016.544983
453138,-0.123274,-0.047066,-0.026538,0.982056327,-0.00727551,0.116681327,-0.010245,-0.342184,1.200122,1016.544983
453238,-0.093562,-0.057809,-0.029812,0.969576939,-0.014503061,0.119580918,-0.019135,-0.345126,1.222509,1016.544983
453338,-0.062768,-0.081142,-0.024456,0.971118571,-0.011271837,0.125717347,-0.021428,-0.34736,1.238426,1016.544983
453438,-0.031675,-0.096219,-0.015713,0.987485612,0.003456735,0.134784796,-0.028257,-0.347674,1.257442,1016.544983
453538,-0.009038,-0.102822,-0.004229,0.999637959,0.019114286,0.14340602,-0.027587,-0.349031,1.27491,1016.544983
453638,0.00063,-0.100908,0.001139,0.998635816,0.028828163,0.139352245,-0.024857,-0.348258,1.288982,1016.544983
453738,0.002957,-0.080828,0.00683,0.999788163,0.029585306,0.138443367,-0.02506,-0.342833,1.300782,1016.544983
453838,-0.004072,-0.051251,0.01297,0.995924796,0.030584082,0.131761224,-0.022761,-0.340887,1.311406,1016.544983
453938,-0.002332,-0.026207,0.009612,0.988100306,0.033158265,0.118279796,-0.02092,-0.337841,1.320081,1016.544983
454038,7.50E-05,-0.024096,0.00132,0.981635306,0.037804184,0.101673061,-0.019578,-0.334786,1.328756,1016.544983
454138,-0.002325,-0.045679,-0.001924,0.980031122,0.046414286,0.089515714,-0.016634,-0.329,1.33206,1016.544983
454238,-0.005162,-0.077057,-0.002527,0.982795918,0.05791,0.088032347,-0.01318,-0.321203,1.334967,1016.544983
454338,0.005349,-0.111384,-0.001573,0.986892653,0.064085408,0.100440204,-0.013197,-0.315297,1.336771,1016.544983
454438,0.023155,-0.131497,-0.003019,0.994806327,0.062339592,0.115547755,-0.012661,-0.309254,1.335577,1016.544983
454538,0.044187,-0.139759,-0.00353,0.996288673,0.051901939,0.130563061,-0.013647,-0.303259,1.335881,1016.544983
454638,0.053154,-0.138862,-0.006313,0.997213878,0.04260898,0.135739898,-0.013135,-0.295794,1.336263,1016.544983
454738,0.049656,-0.133841,-0.005915,1.000229286,0.031676735,0.134624796,-0.011583,-0.284262,1.334848,1016.544983
454838,0.044438,-0.112355,-0.001512,1.009483673,0.028970918,0.124349286,-0.012022,-0.277158,1.332705,1016.544983
454938,0.037886,-0.078354,0.005369,1.009370714,0.025854898,0.113216429,-0.009923,-0.268977,1.328114,1016.544983
455038,0.024489,-0.046372,0.011007,0.99623449,0.029537857,0.10044551,-0.012248,-0.259584,1.320573,1016.544983
455138,0.007448,-0.043641,0.013633,0.990041327,0.031992959,0.094102857,-0.01215,-0.251396,1.316482,1016.544983
455238,-0.002956,-0.070487,0.015981,0.983927755,0.039971837,0.095459184,-0.015917,-0.24333,1.305866,1016.544983
455338,-0.012048,-0.112181,0.017664,0.977612143,0.052336939,0.105079694,-0.01726,-0.23597,1.298724,1016.544983
455438,-0.018674,-0.14168,0.02018,0.983630204,0.060725,0.121800714,-0.019079,-0.227059,1.290659,1016.544983
455538,-0.023464,-0.144038,0.022297,0.99425,0.064027041,0.127467653,-0.018016,-0.220951,1.287965,1016.544983
455638,-0.026431,-0.124092,0.021906,0.999907449,0.060022653,0.117446735,-0.017825,-0.212522,1.278875,1016.544983
455738,-0.03445,-0.106309,0.025149,1.004814082,0.049416122,0.104985,-0.021172,-0.206649,1.272156,1016.544983
455838,-0.03771,-0.101569,0.026572,1.004855,0.042486735,0.09709,-0.020549,-0.199393,1.266514,1016.544983
455938,-0.044247,-0.103742,0.027146,1.003805816,0.034973878,0.093188673,-0.021876,-0.188521,1.25905,1016.544983
456038,-0.055879,-0.105387,0.031297,1.004977959,0.027348265,0.093863265,-0.016605,-0.181898,1.244362,1016.544983
456138,-0.063764,-0.104664,0.033187,1.00024602,0.021470306,0.090067347,-0.016484,-0.176129,1.238644,1016.544983
456238,-0.062715,-0.101275,0.041688,0.993256531,0.022097245,0.085149796,-0.019798,-0.167692,1.230553,1016.544983
456338,-0.045857,-0.092693,0.047412,0.986681531,0.022734694,0.089437857,-0.021216,-0.161023,1.227384,1016.544983
456438,-0.018482,-0.087939,0.052119,0.97979051,0.024054592,0.088227245,-0.025572,-0.152193,1.221817,1016.544983
456538,0.007329,-0.092835,0.053375,0.987165102,0.022541122,0.090694694,-0.025501,-0.143579,1.21925,1016.544983
456638,0.027262,-0.10554,0.057206,0.994779796,0.017759184,0.092834184,-0.028917,-0.134909,1.216682,1016.544983
456738,0.033921,-0.117395,0.063383,1.00118898,0.013509388,0.090658673,-0.033912,-0.126931,1.218586,1016.544983
456838,0.02568,-0.122478,0.071817,1.004714286,0.012106429,0.09491602,-0.031344,-0.119827,1.215444,1016.542786
456938,0.00931,-0.124608,0.080912,1.008579184,0.017319796,0.098273776,-0.032792,-0.109268,1.214478,1016.542786
457038,-0.002754,-0.112899,0.086675,1.011417755,0.023508061,0.097536837,-0.029311,-0.102396,1.215834,1016.542786
457138,-0.010892,-0.106638,0.089596,1.011905714,0.035778061,0.094890102,-0.02431,-0.091016,1.21642,1016.542786
457238,-0.016342,-0.107961,0.092722,1.010596531,0.046334388,0.091054184,-0.019775,-0.083019,1.214828,1016.542786
457338,-0.016428,-0.105738,0.090592,1.011839898,0.050885714,0.086832653,-0.008267,-0.075133,1.213239,1016.542786
457438,-0.006446,-0.109851,0.088954,1.00359898,0.045609388,0.086965714,0.001724,-0.064306,1.213301,1016.542786
457538,0.001598,-0.112898,0.085545,0.999896122,0.042049184,0.084361531,0.00878,-0.054782,1.210288,1016.542786
457638,0.002146,-0.103286,0.076967,0.997894286,0.031027347,0.083495918,0.016756,-0.045964,1.211247,1016.542786
457738,-0.001542,-0.098803,0.068119,0.999057755,0.022152551,0.079081224,0.020832,-0.03141,1.208487,1016.542786
457838,-0.005127,-0.096806,0.057412,0.995529694,0.019314388,0.071372041,0.015811,-0.022009,1.211967,1016.542786
457938,-0.007382,-0.094625,0.050117,1.000317143,0.017323571,0.067112347,0.016846,-0.011016,1.211526,1016.542786
458038,-0.016095,-0.094253,0.05037,1.002664592,0.023646735,0.064742959,0.006881,0.003519,1.213759,1016.542786
458138,-0.034207,-0.095281,0.047881,0.999772551,0.029610918,0.064125612,-0.002043,0.016663,1.213417,1016.542786
458238,-0.057807,-0.103552,0.049125,0.996182449,0.036411735,0.066273878,-0.014045,0.027147,1.217446,1016.542786
458338,-0.082066,-0.105988,0.058142,0.996046327,0.039768571,0.070382245,-0.033045,0.039164,1.223047,1016.542786
458438,-0.102525,-0.099068,0.062477,0.993102857,0.042859286,0.070943878,-0.051441,0.053431,1.223253,1016.546204
458538,-0.116634,-0.095759,0.063487,0.990117245,0.044220204,0.068420816,-0.068866,0.064147,1.224281,1016.546204
458638,-0.121537,-0.091608,0.060325,0.988132755,0.04356051,0.067015408,-0.089767,0.075938,1.224859,1016.546204
458738,-0.118719,-0.08514,0.053576,0.990287653,0.036612347,0.06439602,-0.111641,0.090284,1.224564,1016.546204
458838,-0.115418,-0.083427,0.046066,0.99166949,0.021193367,0.067280408,-0.123872,0.100478,1.214047,1016.546204
458938,-0.110993,-0.084019,0.045763,0.999119694,0.005852143,0.065671224,-0.128086,0.111164,1.201059,1016.546204
459038,-0.103934,-0.08849,0.050124,1.002431224,-0.00501398,0.064995612,-0.125246,0.125419,1.184253,1016.546204
459138,-0.09779,-0.093853,0.055399,1.007077959,-0.00237898,0.069019286,-0.118176,0.136276,1.153749,1016.546204
459238,-0.102142,-0.090545,0.061434,1.010820204,-0.000732959,0.073006633,-0.102525,0.148284,1.117302,1016.546204
459338,-0.114611,-0.085324,0.071257,1.013606531,-0.000581531,0.069175918,-0.082781,0.158525,1.074756,1016.546204
459438,-0.127796,-0.078564,0.080894,1.012283673,0.004962245,0.066511327,-0.058902,0.164129,1.023462,1016.546204
459538,-0.137581,-0.07281,0.090996,1.001865816,0.008573469,0.062009796,-0.032992,0.170795,0.970219,1016.546204
459638,-0.136964,-0.075153,0.097368,0.992326122,0.011374694,0.057361633,-0.007392,0.17349,0.906251,1016.546204
459738,-0.128103,-0.07603,0.096893,0.985020714,0.010382857,0.060834796,0.018827,0.176989,0.835812,1016.546204
459838,-0.11475,-0.076599,0.09667,0.987815,0.007233163,0.064829898,0.038165,0.174386,0.759543,1016.546204
459938,-0.095344,-0.079273,0.092966,0.996484796,0.00559949,0.067312041,0.054121,0.169138,0.677122,1016.546204
460038,-0.083003,-0.080951,0.085662,1.010182041,5.02E-05,0.070269592,0.062119,0.159581,0.59347,1016.547974
460138,-0.069108,-0.080905,0.080802,1.020429592,-0.009691327,0.069072653,0.057613,0.148108,0.512213,1016.547974
460238,-0.054838,-0.07999,0.080147,1.026169286,-0.023265408,0.066498673,0.049541,0.133509,0.4348,1016.547974
460338,-0.04297,-0.078942,0.083467,1.023065102,-0.034325714,0.068151224,0.032819,0.116095,0.366754,1016.547974
460438,-0.0207,-0.070491,0.095371,1.021295204,-0.033856429,0.069269388,0.012444,0.099299,0.307753,1016.547974
460538,0.001108,-0.067498,0.096835,1.011447959,-0.027315102,0.064677755,-0.012033,0.084247,0.255351,1016.547974
460638,0.022432,-0.05812,0.102053,0.999056633,-0.020102245,0.057903061,-0.040209,0.069692,0.214494,1016.547974
460738,0.038286,-0.065673,0.105488,0.991871327,-0.013136122,0.054120102,-0.065475,0.052406,0.177509,1016.547974
460838,0.051524,-0.083989,0.118337,0.985889592,-0.011579694,0.056570918,-0.09586,0.041291,0.14885,1016.547974
460938,0.057026,-0.108961,0.113682,0.984146735,0.00043398,0.05996898,-0.119912,0.02276,0.126835,1016.547974
461038,0.067848,-0.121557,0.110824,0.998174592,0.001276735,0.074025714,-0.146498,0.0111,0.108173,1016.547974
461138,0.073504,-0.110666,0.115089,1.007423163,0.000311224,0.077148571,-0.170162,-0.001274,0.092985,1016.547974
461238,0.07417,-0.078172,0.12025,1.009709592,0.000576633,0.062538367,-0.191896,-0.012853,0.081347,1016.547974
461338,0.072216,-0.049713,0.116176,1.002953571,0.00574449,0.049913061,-0.214709,-0.023635,0.074259,1016.547974
461438,0.080947,-0.037268,0.107956,0.99212,0.013377041,0.051907653,-0.237482,-0.032827,0.065247,1016.547974
461538,0.093185,-0.043851,0.097458,0.985235816,0.013886939,0.058254388,-0.260348,-0.047715,0.060454,1016.547974
461638,0.104368,-0.05858,0.087583,0.983991122,0.013063061,0.060818469,-0.281175,-0.062017,0.053188,1016.547974
461738,0.117569,-0.067454,0.078602,0.988279694,0.008592653,0.065229694,-0.304561,-0.073483,0.050072,1016.547974
461838,0.118705,-0.070127,0.074988,0.9987,0.014434082,0.059984796,-0.326956,-0.087954,0.046804,1016.547974
461938,0.10956,-0.062971,0.065396,1.006956837,0.020126327,0.056808367,-0.342877,-0.098067,0.044266,1016.547974
462038,0.097674,-0.048319,0.057058,1.013497347,0.024156531,0.051922245,-0.366331,-0.110698,0.044598,1016.547974
462138,0.085838,-0.028515,0.045065,1.010129286,0.023679082,0.044751122,-0.382809,-0.122941,0.044957,1016.547974
462238,0.079689,-0.010326,0.032612,1.005299592,0.011486327,0.041158265,-0.397325,-0.130828,0.047545,1016.547974
462338,0.076309,0.001655,0.021791,1.00196,-0.003394694,0.044702143,-0.417338,-0.138676,0.051131,1016.547974
462438,0.073462,0.009395,0.016436,1.001556122,-0.019310612,0.048682959,-0.431893,-0.148154,0.055642,1016.547974
462538,0.074385,0.011062,0.015695,1.000895204,-0.032845408,0.052088469,-0.44845,-0.157126,0.060678,1016.547974
462638,0.086674,0.005071,0.023612,1.000547959,-0.045219796,0.052303571,-0.463514,-0.16216,0.066417,1016.547974
462738,0.104395,-0.008412,0.053698,0.995393367,-0.049561224,0.056551122,-0.477056,-0.167146,0.070657,1016.547974
462838,0.131984,-0.030431,0.051357,1.000208571,-0.023184898,0.059251122,-0.486728,-0.169519,0.081547,1016.547974
462938,0.153257,-0.038234,0.054093,0.994152959,-0.015907959,0.052865306,-0.49334,-0.172742,0.088391,1016.547974
463038,0.164187,-0.059949,0.063815,0.987286122,0.006792551,0.056112347,-0.504965,-0.173492,0.097358,1016.547974
463138,0.168735,-0.069689,0.064159,0.986330204,0.030586939,0.054719082,-0.514072,-0.174708,0.104801,1016.547974
463238,0.169045,-0.072113,0.058063,0.988130408,0.044887449,0.048799592,-0.516742,-0.176621,0.114221,1016.547974
463338,0.171046,-0.074242,0.053273,0.987652347,0.046723061,0.04883949,-0.523901,-0.175995,0.124266,1016.547302
463438,0.180619,-0.080963,0.047536,0.992480918,0.038340408,0.051538163,-0.532517,-0.175748,0.132285,1016.547302
463538,0.193769,-0.08477,0.040697,0.999081327,0.026437041,0.051243878,-0.533639,-0.173578,0.139409,1016.547302
463638,0.205701,-0.083062,0.034733,1.005656531,0.007192449,0.051601224,-0.536776,-0.173418,0.147431,1016.547302
463738,0.215552,-0.078097,0.031772,1.011861327,-0.012730816,0.050406531,-0.537444,-0.169882,0.15713,1016.547302
463838,0.220302,-0.072747,0.030523,1.014966531,-0.02734898,0.050828469,-0.541555,-0.168163,0.164227,1016.547302
463938,0.220331,-0.067045,0.037628,1.020082755,-0.036504898,0.050261122,-0.546166,-0.166934,0.171299,1016.547302
464038,0.222079,-0.05746,0.055392,1.021879082,-0.039041224,0.048053061,-0.55124,-0.167096,0.176296,1016.547302
464138,0.209443,-0.047516,0.075403,1.022265102,-0.033188469,0.04879949,-0.551394,-0.165014,0.18492,1016.547302
464238,0.193856,-0.041093,0.094012,1.013816122,-0.020771327,0.04752449,-0.560904,-0.164486,0.187441,1016.547302
464338,0.177867,-0.039043,0.111757,1.003109898,-0.010065306,0.04745949,-0.560542,-0.162862,0.19504,1016.547302
464438,0.173887,-0.039674,0.118589,0.992943163,0.001787449,0.04736449,-0.567096,-0.164945,0.198935,1016.547302
464538,0.171079,-0.036014,0.116575,0.986592653,0.017699286,0.046871429,-0.567165,-0.162148,0.203086,1016.547302
464638,0.191426,-0.037647,0.109305,0.982758367,0.015533265,0.044546531,-0.573234,-0.161298,0.208133,1016.547302
464738,0.209014,-0.03387,0.0961,0.98674949,0.015138776,0.050031224,-0.574274,-0.159908,0.210708,1016.547302
464838,0.219954,-0.026329,0.080594,0.991971531,0.014707551,0.051242551,-0.577834,-0.159547,0.214731,1016.547302
464938,0.225532,-0.024869,0.066803,0.998355,0.011253265,0.050353571,-0.581388,-0.160657,0.218177,1016.549011
465038,0.215644,-0.019382,0.062381,1.006065816,0.015172857,0.04715,-0.583432,-0.158278,0.221302,1016.549011
465138,0.197372,-0.020039,0.063759,1.012281633,0.018044082,0.039992041,-0.583516,-0.158495,0.225801,1016.549011
465238,0.172262,-0.020607,0.073871,1.018509898,0.017227449,0.034788265,-0.585565,-0.159106,0.228773,1016.549011
465338,0.153373,-0.021154,0.08364,1.022214286,0.018725408,0.029747755,-0.588584,-0.155169,0.230975,1016.549011
465438,0.14338,-0.019963,0.091951,1.021881837,0.020856224,0.033550918,-0.587643,-0.154831,0.233999,1016.549011
465538,0.141329,-0.016009,0.09615,1.013111122,0.020912755,0.039376224,-0.591699,-0.152968,0.238098,1016.549011
465638,0.139757,-0.014909,0.093493,1.005180204,0.017404082,0.046747347,-0.593206,-0.154961,0.238496,1016.549011
465738,0.143314,-0.011437,0.08464,0.999026939,0.012082959,0.050528061,-0.591748,-0.154583,0.240521,1016.549011
465838,0.145208,0.001086,0.070028,0.99599898,0.009123265,0.054121429,-0.593753,-0.151112,0.241698,1016.549011
465938,0.141287,0.012548,0.056796,0.992647143,0.007027551,0.054198265,-0.59424,-0.150084,0.241249,1016.549011
466038,0.128727,0.02395,0.043959,0.992135816,0.005718367,0.055420306,-0.59427,-0.15165,0.242672,1016.549011
466138,0.111816,0.035916,0.037985,0.991224388,0.006970816,0.04979,-0.595283,-0.150188,0.243747,1016.549011
466238,0.102617,0.03893,0.033875,0.992862245,0.015154286,0.046043265,-0.594333,-0.150325,0.246247,1016.549011
466338,0.09415,0.047324,0.032994,0.994678265,0.01436898,0.042556939,-0.592842,-0.152341,0.246145,1016.549011
466438,0.083187,0.056092,0.032797,0.989440102,0.008905,0.038201122,-0.595828,-0.150301,0.246246,1016.549011
466538,0.081498,0.056754,0.028119,0.987482755,-0.004934592,0.043480408,-0.592399,-0.151995,0.24917,1016.550781
466638,0.086779,0.057364,0.026909,0.988398673,-0.020771735,0.048597755,-0.591363,-0.15042,0.247247,1016.550781
466738,0.082124,0.048695,0.022428,0.985446735,-0.041251939,0.048433265,-0.593384,-0.150959,0.248721,1016.550781
466838,0.090635,0.0525,0.020103,0.988811837,-0.061478878,0.05091,-0.588869,-0.148467,0.24735,1016.550781
466938,0.113573,0.075294,0.018058,0.989669388,-0.074522347,0.047087755,-0.587857,-0.149929,0.246274,1016.550781
467038,0.134085,0.105421,0.016086,0.981979694,-0.086219796,0.035898469,-0.59089,-0.149005,0.248823,1016.550781
467138,0.152447,0.126728,0.015919,0.972977755,-0.094498673,0.034578061,-0.589838,-0.148877,0.245825,1016.550781
467238,0.164043,0.134628,0.011939,0.963026633,-0.101396633,0.038644796,-0.588399,-0.148547,0.248849,1016.550781
467338,0.170495,0.127932,0.01079,0.952671429,-0.105416531,0.039071837,-0.58784,-0.145919,0.245978,1016.550781
467438,0.181078,0.114255,0.010382,0.952554796,-0.113724184,0.047218469,-0.587352,-0.146449,0.246452,1016.550781
467538,0.20163,0.102458,0.014595,0.960545204,-0.119126224,0.059474184,-0.589813,-0.144843,0.245028,1016.550781
467638,0.224971,0.098456,0.019334,0.977024388,-0.12204051,0.068667857,-0.586329,-0.146891,0.244928,1016.550781
467738,0.253763,0.104017,0.026082,0.996144082,-0.130633673,0.079590612,-0.587279,-0.146755,0.242429,1016.550781
467838,0.281119,0.118293,0.030617,1.021143265,-0.140493061,0.083158673,-0.589296,-0.145301,0.244004,1016.550781
467938,0.305193,0.140625,0.039728,1.037432551,-0.14921,0.082619082,-0.586814,-0.144866,0.244529,1016.550781
468038,0.333808,0.157609,0.044573,1.048226837,-0.151370102,0.082106327,-0.588775,-0.142769,0.243131,1016.550781
468138,0.368155,0.173884,0.047571,1.057230816,-0.143040714,0.083946531,-0.587751,-0.142713,0.241632,1016.549011
468238,0.403712,0.188123,0.043668,1.061069082,-0.127833367,0.085678163,-0.588743,-0.140206,0.241759,1016.549011
468338,0.433814,0.197167,0.038031,1.061634082,-0.10309551,0.093287653,-0.591714,-0.140609,0.240733,1016.549011
468438,0.448619,0.192579,0.034307,1.058233878,-0.068001327,0.100263163,-0.592706,-0.138101,0.240859,1016.549011
468538,0.455712,0.179874,0.027099,1.053895816,-0.040264694,0.114378673,-0.593707,-0.135619,0.241486,1016.549011
468638,0.448767,0.161638,0.016126,1.049640612,-0.017397857,0.128566939,-0.593751,-0.134244,0.244061,1016.549011
468738,0.441172,0.140276,0.005708,1.033475306,0.000112551,0.143470918,-0.596182,-0.132067,0.241163,1016.549011
468838,0.440568,0.114212,-0.000989,1.016633061,0.014776122,0.156116122,-0.595702,-0.132123,0.242163,1016.549011
468938,0.439269,0.101175,-0.010503,0.995881633,0.012465612,0.155553061,-0.595656,-0.127045,0.240418,1016.549011
469038,0.446518,0.094415,-0.019041,0.97006949,-0.000515102,0.149398367,-0.595646,-0.126523,0.239943,1016.549011
469138,0.45997,0.058488,-0.022369,0.939591224,-0.018943469,0.140612551,-0.592702,-0.125694,0.242494,1016.549011
469238,0.475604,0.00966,-0.020314,0.91516602,-0.033204592,0.135212245,-0.593741,-0.123806,0.245095,1016.549011
469338,0.485776,-0.040697,-0.016986,0.89894898,-0.047047551,0.133787653,-0.592726,-0.123773,0.244095,1016.549011
469438,0.491192,-0.08339,-0.01365,0.892436327,-0.061482959,0.132009388,-0.589252,-0.120389,0.245274,1016.549011
469538,0.486717,-0.126587,-0.0058,0.88634051,-0.074551429,0.126898265,-0.591801,-0.121491,0.248221,1016.549011
469638,0.476513,-0.156793,0.003872,0.887911735,-0.086579592,0.131613469,-0.592784,-0.119458,0.247822,1016.549011
469738,0.458161,-0.174795,0.012996,0.895731633,-0.09353102,0.141955102,-0.588273,-0.119457,0.246324,1016.549011
469838,0.439161,-0.176136,0.023194,0.905248571,-0.097541122,0.156848469,-0.586323,-0.117616,0.248926,1016.550781
469938,0.421252,-0.165403,0.033711,0.919198673,-0.095375612,0.160534694,-0.583812,-0.116113,0.248003,1016.550781
470038,0.403138,-0.151638,0.037951,0.930115,-0.089587755,0.158933265,-0.584341,-0.11817,0.2494,1016.550781
470138,0.399702,-0.149293,0.034269,0.947322653,-0.088529694,0.158278673,-0.581861,-0.118732,0.249876,1016.550781
470238,0.391576,-0.152415,0.029411,0.961272551,-0.076939388,0.151562857,-0.580872,-0.117775,0.250427,1016.550781
470338,0.381668,-0.163309,0.019603,0.969514592,-0.066827959,0.14995102,-0.579445,-0.119462,0.25385,1016.550781
470438,0.376741,-0.172028,0.008809,0.979952143,-0.06352,0.154958367,-0.57942,-0.115428,0.253053,1016.550781
470538,0.364421,-0.17487,-0.001057,0.993786837,-0.059495,0.158263878,-0.57692,-0.115443,0.252554,1016.550781
470638,0.347133,-0.161137,-0.01316,1.004875,-0.052559898,0.167740612,-0.57545,-0.113547,0.254156,1016.550781
470738,0.333586,-0.128175,-0.02576,1.010253265,-0.041680408,0.173713265,-0.573977,-0.115611,0.255054,1016.550781
470838,0.325157,-0.095769,-0.039703,1.006822245,-0.037001837,0.177502143,-0.574493,-0.114655,0.256104,1016.550781
470938,0.311213,-0.077145,-0.055543,1.000234286,-0.03050602,0.180053265,-0.571997,-0.117162,0.255478,1016.550781
471038,0.296166,-0.069603,-0.06918,0.991626633,-0.028014286,0.18829102,-0.571026,-0.115755,0.257054,1016.550781
471138,0.281561,-0.066913,-0.083202,0.980706531,-0.016882653,0.191773469,-0.571034,-0.114783,0.257605,1016.550781
471238,0.270482,-0.068663,-0.093291,0.972678265,-0.009990102,0.195697449,-0.567552,-0.117827,0.257453,1016.550781
471338,0.261029,-0.06696,-0.098854,0.962321224,-0.005195714,0.196646327,-0.567104,-0.114492,0.26063,1016.550781
471438,0.244429,-0.070394,-0.106302,0.955031633,-0.009011224,0.187152143,-0.568095,-0.116944,0.260003,1016.545044
471538,0.242685,-0.073503,-0.107636,0.953616939,-0.016661224,0.180939592,-0.569562,-0.116848,0.258503,1016.545044
471638,0.243924,-0.075301,-0.118446,0.950260816,-0.003085306,0.17127398,-0.563659,-0.117135,0.262504,1016.545044
471738,0.238976,-0.075377,-0.132629,0.950774796,-0.008458776,0.170666735,-0.565114,-0.120977,0.259801,1016.545044
471838,0.227624,-0.063582,-0.141474,0.951697551,-0.003207347,0.17658102,-0.565193,-0.124159,0.263647,1016.545044
471938,0.207242,-0.050509,-0.150258,0.954008163,-0.002172449,0.186331837,-0.560179,-0.121176,0.262301,1016.545044
472038,0.175251,-0.046728,-0.15629,0.950634388,-0.016527143,0.186752041,-0.560697,-0.122213,0.26325,1016.545044
472138,0.150304,-0.05725,-0.150711,0.950398265,-0.007608878,0.198319796,-0.558149,-0.12607,0.259549,1016.545044
472238,0.124249,-0.061991,-0.170353,0.962763367,0.007853061,0.21756551,-0.558185,-0.130626,0.26082,1016.545044
472338,0.082158,-0.049494,-0.18195,0.9685,0.005273367,0.222902449,-0.558173,-0.129606,0.260371,1016.545044
472438,0.05231,-0.045306,-0.191861,0.967968673,0.003410612,0.229799796,-0.554207,-0.134675,0.260618,1016.545044
472538,0.034342,-0.04,-0.19478,0.976862041,0.008026224,0.237928776,-0.554679,-0.135591,0.259067,1016.545044
472638,0.012433,-0.024801,-0.186826,0.989601939,-0.012592857,0.239106837,-0.551696,-0.139127,0.25889,1016.545044
472738,-0.004159,-0.016874,-0.18836,0.991856327,0.03040398,0.250460816,-0.549712,-0.14414,0.258637,1016.545044
472838,-0.021341,-0.005917,-0.210473,0.996322347,0.040213265,0.265924592,-0.545694,-0.1461,0.256537,1016.545044
472938,-0.04623,-0.005543,-0.221876,0.991585918,0.039352041,0.274693776,-0.543226,-0.148679,0.257411,1016.545044
473038,-0.085246,-0.011807,-0.22971,0.986767857,0.023015102,0.273643061,-0.54225,-0.154698,0.257606,1016.545044
473138,-0.114337,-0.015444,-0.236991,0.983513776,0.003951327,0.270676939,-0.540249,-0.160161,0.256328,1016.545044
473238,-0.125282,0.002328,-0.242173,0.987383469,-0.017605204,0.260792857,-0.536235,-0.159654,0.254855,1016.545044
473338,-0.123155,0.027873,-0.239611,0.989149694,-0.035803163,0.237915408,-0.531724,-0.16511,0.252578,1016.545044
473438,-0.110568,0.059189,-0.238708,0.997990714,-0.050692959,0.226947041,-0.528217,-0.169577,0.250851,1016.545044
473538,-0.09874,0.096103,-0.23457,1.021250408,-0.041752551,0.232611633,-0.526278,-0.173216,0.253173,1016.545044
473638,-0.10385,0.140177,-0.226356,1.062887653,-0.035622959,0.239640408,-0.522722,-0.176567,0.248997,1016.545044
473738,-0.135759,0.177542,-0.211592,1.096236122,-0.039007551,0.221018163,-0.522229,-0.184522,0.248091,1016.545044
473838,-0.144407,0.180221,-0.188318,1.113296429,-0.054968367,0.179958265,-0.51623,-0.188032,0.246416,1016.545044
473938,-0.108999,0.149019,-0.155192,1.132741939,-0.088045612,0.134384388,-0.517194,-0.190411,0.244289,1016.545044
474038,-0.039776,0.119028,-0.119521,1.156623469,-0.087227857,0.097274184,-0.51375,-0.194051,0.246112,1016.545044
474138,0.032182,0.093437,-0.091254,1.184024694,-0.084912959,0.067443265,-0.514208,-0.19741,0.243435,1016.545044
474238,0.076743,0.071934,-0.074587,1.228244898,-0.087647857,0.05445,-0.507257,-0.205018,0.243556,1016.545044
474338,0.08328,0.089367,-0.065719,1.280717143,-0.090606837,0.053442959,-0.513263,-0.205494,0.245028,1016.545044
474438,0.057536,0.111238,-0.063381,1.32093102,-0.069441429,0.060540612,-0.513713,-0.209825,0.2418,1016.545044
474538,0.028962,0.13617,-0.068252,1.350778571,-0.040238265,0.066646939,-0.513244,-0.210404,0.243274,1016.545044
474638,-0.002609,0.162744,-0.076413,1.359438163,-0.007666224,0.070574694,-0.515287,-0.212984,0.245646,1016.546753
474738,-0.052229,0.18169,-0.082611,1.337468163,0.03342051,0.074033163,-0.518769,-0.215395,0.245018,1016.546753
474838,-0.108644,0.182268,-0.09154,1.296367449,0.07303449,0.076533265,-0.52372,-0.218708,0.242839,1016.546753
474938,-0.167128,0.172848,-0.096385,1.242391429,0.114805102,0.073384082,-0.524735,-0.219238,0.243813,1016.546753
475038,-0.233462,0.158023,-0.097058,1.186038776,0.138508367,0.058315306,-0.529705,-0.21764,0.243388,1016.546753
475138,-0.292131,0.147034,-0.099583,1.131432449,0.143354694,0.033693163,-0.533185,-0.219056,0.242811,1016.546753
475238,-0.337466,0.131206,-0.096737,1.075419796,0.130551429,-0.004469592,-0.533691,-0.218574,0.243336,1016.546753
475338,-0.371132,0.095966,-0.085555,1.012490918,0.102180918,-0.052753469,-0.536128,-0.219884,0.24026,1016.546753
475438,-0.410722,0.043366,-0.068066,0.942190714,0.081958367,-0.097202143,-0.537626,-0.221853,0.240158,1016.546753
475538,-0.443331,-0.036532,-0.044917,0.871656837,0.065782653,-0.130583571,-0.543572,-0.224652,0.238004,1016.546753
475638,-0.474332,-0.115236,-0.022959,0.832069592,0.060115102,-0.147217449,-0.545089,-0.227167,0.238877,1016.546753
475738,-0.503611,-0.163456,0.001016,0.793482143,0.073387041,-0.140459898,-0.54658,-0.230109,0.238224,1016.546753
475838,-0.532406,-0.181382,0.014506,0.765892143,0.090502347,-0.124422143,-0.550468,-0.233268,0.232547,1016.546753
475938,-0.534756,-0.170985,0.023975,0.759452041,0.10207398,-0.097026837,-0.551454,-0.237688,0.231318,1016.546753
476038,-0.501542,-0.131459,0.024262,0.785006939,0.107211122,-0.06845449,-0.554904,-0.242993,0.228539,1016.546753
476138,-0.438143,-0.087327,0.020394,0.837200918,0.109585,-0.044877041,-0.557873,-0.247358,0.22681,1016.546753
476238,-0.368688,-0.04615,0.010841,0.892478367,0.097055918,-0.028934082,-0.560265,-0.254503,0.220431,1016.548523
476338,-0.31203,-0.012416,-0.005196,0.940103878,0.079563265,-0.015981939,-0.565232,-0.256866,0.219302,1016.548523
476438,-0.277479,0.021805,-0.017673,0.985019898,0.064598878,0.001368367,-0.569704,-0.261231,0.218073,1016.548523
476538,-0.251881,0.06253,-0.033451,1.015541531,0.050630918,0.012101327,-0.571613,-0.260983,0.213574,1016.548523
476638,-0.228744,0.092505,-0.046462,1.030897143,0.045607347,0.002267041,-0.578007,-0.267116,0.208244,1016.548523
476738,-0.207186,0.09882,-0.057193,1.03334449,0.053871122,-0.008588571,-0.577532,-0.270162,0.209091,1016.548523
476838,-0.193564,0.077567,-0.056717,1.020796837,0.067774388,-0.012594592,-0.583432,-0.27284,0.204438,1016.548523
476938,-0.194727,0.041654,-0.049434,1.004462653,0.080902653,-0.003685612,-0.585879,-0.274673,0.201837,1016.548523
477038,-0.201591,0.011034,-0.035865,0.989023571,0.081695408,0.009571327,-0.590881,-0.275638,0.202784,1016.548523
477138,-0.21098,-0.013492,-0.01903,0.962954898,0.079644286,0.020282755,-0.593363,-0.276073,0.202258,1016.548523
477238,-0.214392,-0.033724,0.001601,0.937408163,0.072206837,0.038822347,-0.595312,-0.277914,0.199657,1016.548523
477338,-0.214113,-0.042972,0.024989,0.920772959,0.067993265,0.063873469,-0.598827,-0.27793,0.201155,1016.548523
477438,-0.216711,-0.038817,0.043275,0.916179184,0.064372653,0.080551224,-0.600757,-0.274267,0.198334,1016.548523
477538,-0.219486,-0.010289,0.057277,0.913024082,0.060807449,0.088376633,-0.606751,-0.278182,0.198629,1016.548523
477638,-0.212903,0.02752,0.063554,0.910935612,0.060666531,0.095026633,-0.606179,-0.277997,0.19463,1016.548523
477738,-0.219363,0.071553,0.069716,0.916479796,0.068069388,0.090782347,-0.608681,-0.279476,0.195053,1016.548523
477838,-0.23193,0.097219,0.073331,0.910056939,0.067000714,0.082708571,-0.610098,-0.277765,0.19113,1016.548523
477938,-0.224173,0.09634,0.078314,0.91787449,0.066833163,0.092652245,-0.616033,-0.274585,0.189282,1016.548523
478038,-0.217327,0.102435,0.086658,0.93142449,0.066676531,0.094464898,-0.617026,-0.277534,0.188629,1016.548523
478138,-0.214865,0.094848,0.088745,0.927953061,0.069212347,0.086012755,-0.619475,-0.275405,0.186731,1016.548523
478238,-0.210356,0.066871,0.093546,0.921095204,0.073186122,0.080268265,-0.619475,-0.275405,0.186731,1016.548523
478338,-0.211964,0.021706,0.094908,0.904716735,0.077002551,0.082845714,-0.623442,-0.275294,0.18573,1016.548523
478438,-0.211853,-0.028552,0.098741,0.896015102,0.077051531,0.088482755,-0.625434,-0.275262,0.18573,1016.548523
478538,-0.208239,-0.067278,0.10286,0.890736224,0.076841633,0.101132347,-0.625904,-0.274684,0.184255,1016.548523
478638,-0.199573,-0.082817,0.105672,0.894462857,0.073519286,0.120551837,-0.628864,-0.274066,0.18278,1016.548523
478738,-0.187961,-0.070532,0.109482,0.90896,0.06947,0.134844592,-0.629379,-0.273608,0.183805,1016.548523
478838,-0.172111,-0.033571,0.112054,0.924225408,0.065958673,0.148035918,-0.63283,-0.273955,0.181779,1016.548523
478938,-0.14784,0.010016,0.115324,0.925780102,0.064873469,0.141950612,-0.631333,-0.272982,0.181831,1016.548523
479038,-0.11475,0.034443,0.117162,0.917564388,0.064687041,0.135829388,-0.633295,-0.271384,0.180407,1016.548523
479138,-0.081704,0.035118,0.118594,0.909582245,0.065004286,0.140555408,-0.636281,-0.269841,0.180482,1016.548523
479238,-0.048656,0.028238,0.120182,0.917368061,0.064115306,0.156199286,-0.635251,-0.271255,0.178407,1016.548523
479338,-0.027651,0.029782,0.126161,0.92875551,0.066520918,0.164017755,-0.634232,-0.268732,0.177535,1016.548523
479438,-0.020634,0.023168,0.130478,0.940366224,0.070397449,0.166424184,-0.636753,-0.270259,0.178957,1016.548523
479538,-0.026212,0.024481,0.13721,0.937381735,0.07569051,0.161796837,-0.635233,-0.266747,0.178136,1016.544495
479638,-0.034508,0.041311,0.142947,0.928465102,0.077087245,0.153887245,-0.637187,-0.265623,0.176187,1016.544495
479738,-0.042599,0.062758,0.149481,0.924479082,0.07018,0.146891837,-0.639185,-0.268581,0.176034,1016.544495
479838,-0.052754,0.095089,0.156669,0.932865204,0.058662653,0.136971429,-0.638713,-0.267664,0.177584,1016.544495
479938,-0.065739,0.120804,0.162614,0.936062245,0.05372949,0.149130204,-0.640183,-0.264603,0.176737,1016.544495
480038,-0.086844,0.134355,0.163882,0.939715714,0.058099592,0.166361327,-0.64166,-0.265029,0.175711,1016.544495
480138,-0.121853,0.140412,0.163766,0.943858061,0.066265102,0.185463163,-0.641593,-0.263864,0.172263,1016.544495
480238,-0.162865,0.145451,0.166726,0.959621327,0.071382857,0.206078163,-0.64206,-0.26229,0.17084,1016.544495
480338,-0.196446,0.167192,0.166076,0.97776,0.078122857,0.222246429,-0.642532,-0.263206,0.169289,1016.544495
480438,-0.217431,0.213795,0.161531,0.994857755,0.091348469,0.233315816,-0.648952,-0.262959,0.166289,1016.544495
480538,-0.229526,0.271123,0.154092,1.009649694,0.101351122,0.237195,-0.648934,-0.262911,0.165289,1016.544495
480638,-0.230363,0.31749,0.143219,1.023549184,0.102010204,0.238705918,-0.646868,-0.263746,0.161241,1016.544495
480738,-0.218761,0.345037,0.129546,1.041687551,0.089472653,0.246116327,-0.648266,-0.261488,0.156344,1016.544495
480838,-0.189409,0.359506,0.117326,1.067991837,0.065939898,0.26493398,-0.65123,-0.263362,0.154742,1016.544495
480938,-0.136517,0.368303,0.11073,1.088717959,0.031086837,0.282595306,-0.652673,-0.260228,0.152395,1016.544495
481038,-0.074387,0.376591,0.11747,1.111815816,-0.010520306,0.30734898,-0.652158,-0.261683,0.151319,1016.544495
481138,-0.006463,0.407275,0.135786,1.149531122,-0.049709592,0.323760714,-0.652092,-0.261016,0.147846,1016.546204
481238,0.055707,0.47271,0.169359,1.205247857,-0.096747245,0.307936327,-0.653538,-0.259875,0.145397,1016.546204
481338,0.109773,0.532876,0.204863,1.24228051,-0.10353449,0.265018163,-0.652966,-0.254732,0.142153,1016.546204
481438,0.139752,0.566833,0.232585,1.269250816,-0.06182,0.229881633,-0.65791,-0.254059,0.140177,1016.546204
481538,0.144465,0.573841,0.233723,1.303739286,0.008042041,0.211470306,-0.656322,-0.248883,0.135934,1016.546204
481638,0.132459,0.548433,0.209272,1.350158163,0.069854898,0.174550714,-0.6563,-0.246842,0.135036,1016.546204
481738,0.107883,0.468715,0.183615,1.40117551,0.112596633,0.129438776,-0.66122,-0.243629,0.132187,1016.546204
481838,0.043723,0.368897,0.146506,1.417120102,0.130340714,0.079023367,-0.660205,-0.23814,0.131967,1016.546204
481938,-0.027731,0.261032,0.116195,1.371064184,0.109339592,0.017616939,-0.662629,-0.237434,0.128494,1016.546204
482038,-0.086065,0.159795,0.100965,1.292229898,0.065757143,-0.023711531,-0.659613,-0.231953,0.127774,1016.546204
482138,-0.129843,0.073024,0.091934,1.189470714,0.013149898,-0.055593878,-0.65861,-0.228481,0.127952,1016.546204
482238,-0.136694,-0.036287,0.095779,1.086826633,-0.027488776,-0.086983673,-0.65808,-0.225926,0.12658,1016.546204
482338,-0.135857,-0.178039,0.097705,0.989642755,-0.057976224,-0.116402449,-0.657101,-0.220035,0.128385,1016.546204
482438,-0.090479,-0.290276,0.097269,0.930604082,-0.098963776,-0.088713878,-0.654636,-0.21915,0.129936,1016.546204
482538,-0.005211,-0.332558,0.111262,0.872102653,-0.145147755,-0.063861429,-0.654589,-0.213573,0.128216,1016.546204
482638,0.120435,-0.354792,0.111127,0.786013367,-0.193482959,-0.043391327,-0.652658,-0.211282,0.131842,1016.546204
482738,0.309504,-0.365199,0.109482,0.717065714,-0.237859388,-0.018721735,-0.652191,-0.207899,0.134019,1016.547974
482838,0.518131,-0.336475,0.105396,0.690761939,-0.263358367,0.010576735,-0.653729,-0.206501,0.136594,1016.547974
482938,0.684603,-0.252431,0.099383,0.713292347,-0.256118469,0.03805102,-0.656202,-0.201953,0.136322,1016.547974
483038,0.775056,-0.125308,0.085407,0.762827041,-0.210619592,0.074103163,-0.6553,-0.197252,0.142074,1016.547974
483138,0.777423,-0.002757,0.070539,0.831707959,-0.169195102,0.08996449,-0.65726,-0.194657,0.140701,1016.547974
483238,0.690709,0.089768,0.060779,0.897235102,-0.134914286,0.087336224,-0.657228,-0.192592,0.139303,1016.547974
483338,0.591829,0.108088,0.058352,0.94948398,-0.08319051,0.083422449,-0.663707,-0.189025,0.139979,1016.547974
483438,0.492482,0.087077,0.05716,1.008581837,-0.006130612,0.077150612,-0.661744,-0.190126,0.141428,1016.547974
483538,0.404919,0.042521,0.04524,1.07536898,0.064698673,0.047953878,-0.667699,-0.18799,0.140529,1016.547974
483638,0.32849,-0.011238,0.029814,1.126547041,0.098970408,0.004659694,-0.66672,-0.187057,0.141579,1016.547974
483738,0.267924,-0.04546,0.010524,1.149637755,0.084957959,-0.020916327,-0.670196,-0.185981,0.141129,1016.547974
483838,0.218632,-0.046294,-0.012732,1.11731602,0.038866429,-0.017435,-0.666715,-0.184068,0.141732,1016.547974
483938,0.186084,-0.054064,-0.037393,1.060731531,-0.007381837,0.010228878,-0.667718,-0.182581,0.142308,1016.547974
484038,0.184228,-0.079703,-0.057764,1.010335204,-0.046030306,0.047146735,-0.669681,-0.181979,0.140833,1016.547974
484138,0.204577,-0.116986,-0.0565,0.971007143,-0.074209796,0.083305,-0.667192,-0.182517,0.140808,1016.547974
484238,0.237752,-0.148041,-0.037139,0.923361837,-0.093154388,0.102866531,-0.667702,-0.17907,0.141985,1016.547974
484338,0.231111,-0.179286,-0.035502,0.892984796,-0.08511398,0.122619592,-0.6677,-0.177575,0.142061,1016.547974
484438,0.275844,-0.209447,-0.010891,0.870655816,-0.088137449,0.117799592,-0.663722,-0.176666,0.142614,1016.547974
484538,0.313552,-0.255904,-0.001047,0.826111633,-0.077961837,0.125300918,-0.666269,-0.176771,0.145612,1016.547974
484638,0.31951,-0.293638,0.01213,0.833571429,-0.070612755,0.126370918,-0.665279,-0.175316,0.146188,1016.547974
484738,0.314182,-0.318104,0.026902,0.844957449,-0.060927551,0.124505714,-0.66335,-0.17452,0.149738,1016.547974
484838,0.313625,-0.333625,0.041734,0.858545204,-0.050865408,0.126438367,-0.662831,-0.173483,0.148789,1016.547974
484938,0.282466,-0.346796,0.047088,0.878575612,-0.040204796,0.133648776,-0.661897,-0.171675,0.15239,1016.547974
485038,0.256382,-0.342616,0.049846,0.89376949,-0.038334694,0.14395,-0.661952,-0.171321,0.155414,1016.547974
485138,0.233771,-0.333657,0.050238,0.908832245,-0.039585714,0.153428776,-0.661427,-0.172253,0.153864,1016.547974
485238,0.210771,-0.330903,0.048566,0.910078061,-0.051993367,0.151668776,-0.658976,-0.173386,0.155813,1016.547974
485338,0.171214,-0.325196,0.040738,0.907210918,-0.061874898,0.161078571,-0.658974,-0.172389,0.155864,1016.547974
485438,0.124868,-0.30688,0.033678,0.908114286,-0.068812245,0.17501449,-0.658538,-0.171071,0.159439,1016.547974
485538,0.088546,-0.262647,0.02116,0.901755306,-0.074364796,0.184197449,-0.657551,-0.170613,0.159964,1016.547974
485638,0.054657,-0.198983,0.007368,0.901147857,-0.074947041,0.190909286,-0.656069,-0.172653,0.160363,1016.547974
485738,0.008184,-0.14457,-0.009382,0.903491837,-0.075546735,0.189515612,-0.654074,-0.17119,0.16044,1016.547974
485838,-0.033086,-0.106763,-0.024226,0.911096122,-0.067148878,0.192093061,-0.655565,-0.17463,0.159762,1016.547974
485938,-0.091656,-0.079281,-0.040909,0.93392051,-0.052817857,0.195502959,-0.653065,-0.174645,0.159263,1016.547974
486038,-0.144881,-0.05464,-0.052612,0.963490408,-0.049114082,0.182318265,-0.654119,-0.175771,0.162211,1016.545593
486138,-0.168293,-0.031073,-0.054519,0.983445408,-0.060865918,0.149806224,-0.652591,-0.177193,0.160136,1016.545593
486238,-0.15589,0.002675,-0.058546,1.000979898,-0.074443673,0.118309388,-0.652528,-0.178519,0.156561,1016.545593
486338,-0.110677,0.049951,-0.072341,1.009332347,-0.083557551,0.096761633,-0.64997,-0.182351,0.15236,1016.545593
486438,-0.054631,0.090999,-0.094442,1.010216122,-0.092446531,0.073613571,-0.650552,-0.18256,0.156858,1016.545593
486538,0.000602,0.090607,-0.117915,1.014083163,-0.108935918,0.042872653,-0.64998,-0.182874,0.152834,1016.545593
486638,0.03181,0.031904,-0.130606,1.029298878,-0.121455102,0.00961449,-0.646965,-0.183845,0.151285,1016.545593
486738,0.06042,-0.060763,-0.138646,1.046285408,-0.12844949,0.002040204,-0.644525,-0.185998,0.153683,1016.545593
486838,0.109551,-0.12199,-0.14193,1.074349388,-0.132743571,0.035024796,-0.645572,-0.183636,0.156809,1016.545593
486938,0.173471,-0.090448,-0.143426,1.111443265,-0.133748061,0.110158673,-0.642609,-0.187717,0.157606,1016.545593
487038,0.223406,0.01282,-0.139953,1.138532755,-0.127156633,0.198004082,-0.642025,-0.186512,0.153159,1016.545593
487138,0.232576,0.134289,-0.14418,1.157935,-0.103111531,0.280893571,-0.646077,-0.187614,0.156605,1016.545593
487238,0.19462,0.258792,-0.148846,1.175448061,-0.060211531,0.33265102,-0.644546,-0.187541,0.154607,1016.545593
487338,0.128948,0.394672,-0.152601,1.198747755,-0.012150408,0.351871531,-0.648018,-0.189929,0.153479,1016.545593
487438,0.055242,0.522582,-0.156156,1.202843673,0.043153571,0.309905612,-0.646491,-0.186891,0.152132,1016.545593
487538,-0.019037,0.595711,-0.168142,1.180193673,0.078785612,0.227431429,-0.647427,-0.189696,0.148481,1016.545593
487638,-0.050363,0.599353,-0.174125,1.154055816,0.064645714,0.147369694,-0.649834,-0.189439,0.143982,1016.543884
487738,-0.037613,0.551952,-0.167506,1.177040306,0.033704388,0.097688367,-0.649819,-0.191384,0.142881,1016.543884
487838,-0.041644,0.490382,-0.154348,1.230116735,-0.003391429,0.057694286,-0.65326,-0.191706,0.140355,1016.543884
487938,-0.071508,0.416224,-0.136336,1.250075714,-0.052919796,0.010362041,-0.648774,-0.190283,0.140433,1016.543884
488038,-0.104693,0.307987,-0.113102,1.215213163,-0.10109602,-0.063223469,-0.652706,-0.19157,0.137357,1016.543884
488138,-0.137464,0.169508,-0.093344,1.153110408,-0.10093898,-0.100888061,-0.651206,-0.188604,0.137509,1016.543884
488238,-0.15344,0.051458,-0.079365,1.105128878,-0.072139694,-0.071436735,-0.653689,-0.189537,0.136958,1016.543884
488338,-0.168511,-0.003618,-0.067031,1.062454796,-0.041168469,-0.050376224,-0.651189,-0.189054,0.136484,1016.543884
488438,-0.165648,-0.022166,-0.057573,0.988987143,-0.011470408,-0.057039286,-0.652711,-0.189103,0.137983,1016.543884
488538,-0.151075,-0.064172,-0.062749,0.892079796,0.030992245,-0.041491122,-0.653212,-0.19059,0.137907,1016.543884
488638,-0.143657,-0.115096,-0.07326,0.804426939,0.079753061,-0.009525306,-0.65522,-0.189112,0.138982,1016.543884
488738,-0.166179,-0.14697,-0.081724,0.754919898,0.12219449,0.034873265,-0.654249,-0.187705,0.140558,1016.543884
488838,-0.235056,-0.123757,-0.079481,0.736232959,0.162042653,0.074302551,-0.654212,-0.187609,0.138559,1016.543884
488938,-0.35482,-0.044647,-0.074313,0.749257245,0.184322653,0.083922959,-0.653693,-0.19153,0.136856,1016.543884
489038,-0.474168,0.056768,-0.064038,0.778046735,0.187063061,0.070395,-0.656169,-0.193933,0.135729,1016.543884
489138,-0.543109,0.138191,-0.045155,0.831738571,0.165894184,0.048374898,-0.656159,-0.198369,0.134501,1016.543884
489238,-0.546373,0.177899,-0.025789,0.900421939,0.129173469,0.027070204,-0.658077,-0.198643,0.130476,1016.545593
489338,-0.498541,0.158184,-0.012536,0.974876837,0.086336531,0.009616735,-0.65704,-0.201528,0.127825,1016.545593
489438,-0.420353,0.084112,-0.00615,1.048041939,0.031692959,0.002218878,-0.657986,-0.204357,0.124674,1016.545593
489538,-0.331124,-0.023891,0.000585,1.120335204,-0.027869184,0.002168367,-0.658488,-0.206841,0.124546,1016.545593
489638,-0.250195,-0.131483,0.007722,1.18871102,-0.061911327,-0.001007857,-0.658975,-0.205812,0.124098,1016.545593
489738,-0.189073,-0.201066,0.008145,1.229709796,-0.061645204,-0.001703878,-0.658012,-0.208889,0.125445,1016.545593
489838,-0.144752,-0.227834,-0.003207,1.225514184,-0.043285102,0.011908265,-0.659996,-0.208834,0.124944,1016.545593
489938,-0.110185,-0.227118,-0.01348,1.168655612,-0.035583061,0.037809898,-0.660014,-0.208882,0.125944,1016.545593
490038,-0.078903,-0.239228,-0.016008,1.094103776,-0.039313469,0.074523367,-0.659544,-0.208962,0.127443,1016.545593
490138,-0.051141,-0.265468,-0.010296,1.024225204,-0.033382245,0.105243469,-0.659554,-0.209484,0.127918,1016.545593
490238,-0.044041,-0.292865,0.010158,0.957966633,-0.015461735,0.136351939,-0.656078,-0.210062,0.128393,1016.545593
490338,-0.088056,-0.304415,0.029028,0.895609694,0.017576633,0.15723398,-0.660576,-0.208046,0.129493,1016.545593
490438,-0.163383,-0.275006,0.044282,0.867530204,0.050744388,0.161589694,-0.658609,-0.207154,0.131044,1016.545593
490538,-0.242192,-0.199144,0.052837,0.853155102,0.068893776,0.15195,-0.660122,-0.207178,0.132043,1016.545593
490638,-0.300154,-0.127638,0.05676,0.845903265,0.069145204,0.13025551,-0.659118,-0.207668,0.131518,1016.545593
490738,-0.342503,-0.078397,0.060703,0.843063061,0.061174694,0.109912653,-0.659596,-0.207114,0.130544,1016.545593
490838,-0.345823,-0.084124,0.05622,0.844981327,0.045513367,0.095831429,-0.65909,-0.207596,0.130019,1016.545593
490938,-0.325408,-0.130047,0.048247,0.863560102,0.033999898,0.081526633,-0.660111,-0.211116,0.13084,1016.545593
491038,-0.298876,-0.176474,0.035279,0.888894388,0.026171939,0.067982245,-0.657075,-0.211043,0.128342,1016.545593
491138,-0.26095,-0.221785,0.025903,0.89603551,0.024898265,0.056845204,-0.659106,-0.211606,0.130315,1016.545593
491238,-0.223538,-0.26855,0.015336,0.880119184,0.033769184,0.053021531,-0.659095,-0.210585,0.129867,1016.545593
491338,-0.183162,-0.303803,-0.000113,0.85472051,0.050696224,0.061383571,-0.659088,-0.212056,0.12929,1016.545593
491438,-0.152255,-0.309977,-0.021771,0.851260306,0.064004286,0.075550714,-0.658093,-0.21257,0.129265,1016.545593
491538,-0.121309,-0.271878,-0.034335,0.862602857,0.071458878,0.095679694,-0.65717,-0.21228,0.133289,1016.545593
491638,-0.084659,-0.199518,-0.040172,0.882878878,0.066646735,0.104610612,-0.654685,-0.215309,0.133138,1016.545593
491738,-0.038562,-0.129467,-0.038955,0.903033163,0.051904898,0.109575408,-0.65516,-0.212762,0.132265,1016.545593
491838,-0.0077,-0.085415,-0.029734,0.926955102,0.037781224,0.10981398,-0.65222,-0.218884,0.13396,1016.545593
491938,0.007707,-0.070273,-0.019725,0.951223571,0.029192041,0.114558061,-0.652686,-0.216811,0.132562,1016.545593
492038,0.014807,-0.061955,-0.009537,0.967108061,0.028078673,0.116552041,-0.649185,-0.213853,0.132216,1016.545593
492138,0.014879,-0.049932,-0.001121,0.962881735,0.037672653,0.116349592,-0.650728,-0.215444,0.134639,1016.545593
492238,-0.002496,-0.045444,0.003466,0.94743949,0.047033469,0.105932653,-0.651163,-0.216264,0.131089,1016.545593
492338,-0.032595,-0.036218,0.012472,0.940502755,0.057702551,0.100336224,-0.649246,-0.217485,0.135037,1016.547302
492438,-0.056698,-0.035539,0.025686,0.940038776,0.066709694,0.085005612,-0.644715,-0.216439,0.13259,1016.547302
492538,-0.068866,-0.037346,0.039725,0.942946837,0.081366122,0.076872755,-0.647194,-0.214881,0.132166,1016.547302
492638,-0.092412,-0.032068,0.049371,0.952910102,0.100056939,0.078884898,-0.645715,-0.218416,0.132488,1016.547302
492738,-0.130841,-0.01784,0.058074,0.967389286,0.119358673,0.086031224,-0.643667,-0.218802,0.129465,1016.547302
492838,-0.191926,0.000833,0.064187,0.986212449,0.131930306,0.091413673,-0.644655,-0.218762,0.128964,1016.547302
492938,-0.256103,0.002402,0.069238,0.99948949,0.127245306,0.087739388,-0.64017,-0.218335,0.128991,1016.547302
493038,-0.314713,-0.001725,0.069596,1.007795408,0.106394286,0.080252041,-0.64114,-0.218745,0.127466,1016.547302
493138,-0.326032,0.014625,0.079868,1.020168367,0.06514398,0.080585612,-0.638584,-0.218616,0.123968,1016.547302
493238,-0.31407,0.063926,0.096288,1.049492347,0.020371735,0.098526633,-0.637579,-0.219106,0.123444,1016.547302
493338,-0.287485,0.147301,0.123851,1.086962653,-0.028328776,0.128042143,-0.634527,-0.219981,0.119895,1016.547302
493438,-0.254283,0.247455,0.158685,1.147854796,-0.073627245,0.164915714,-0.63647,-0.217836,0.117497,1016.547302
493538,-0.221689,0.322484,0.205041,1.217778878,-0.114918265,0.183727347,-0.634967,-0.218334,0.116972,1016.547302
493638,-0.199522,0.355856,0.255843,1.270134592,-0.133015204,0.193579184,-0.634379,-0.214638,0.112652,1016.547302
493738,-0.202955,0.408086,0.286948,1.298088367,-0.120190612,0.221218367,-0.632832,-0.211552,0.110306,1016.547302
493838,-0.209796,0.516188,0.307709,1.326948571,-0.095529592,0.231028163,-0.632251,-0.206385,0.106561,1016.547302
493938,-0.202224,0.622975,0.32901,1.380054388,-0.084566735,0.186853469,-0.633605,-0.206,0.099064,1016.547302
494038,-0.186281,0.666479,0.344,1.415563367,-0.060212857,0.086814592,-0.63011,-0.201072,0.099319,1016.549011
494138,-0.121964,0.579341,0.336265,1.390158469,-0.02909449,-0.043764388,-0.635548,-0.198896,0.09742,1016.549011
494238,-0.022335,0.408769,0.308344,1.304416429,-0.006413469,-0.151362449,-0.633973,-0.194742,0.093625,1016.549011
494338,0.062488,0.212879,0.261397,1.185762755,-0.006908673,-0.182432857,-0.631949,-0.18775,0.092982,1016.549011
494438,0.107566,0.02775,0.213162,1.093163367,-0.024855102,-0.120009898,-0.633002,-0.18292,0.096734,1016.549011
494538,0.104459,-0.098174,0.181858,1.022593367,-0.050216735,-0.04547398,-0.629455,-0.180838,0.093838,1016.549011
494638,0.071356,-0.169984,0.170807,0.958722245,-0.076802959,-0.010028878,-0.63149,-0.178436,0.096463,1016.549011
494738,0.061417,-0.219465,0.157389,0.887795918,-0.103603776,0.008965204,-0.629529,-0.170118,0.099395,1016.549011
494838,0.102962,-0.240028,0.144458,0.811164388,-0.117341429,0.035277653,-0.629038,-0.168655,0.099971,1016.549011
494938,0.194983,-0.208921,0.127484,0.758427653,-0.113616837,0.085462143,-0.632043,-0.16766,0.101021,1016.549011
495038,0.294739,-0.089458,0.100662,0.74100102,-0.103308571,0.12890602,-0.629063,-0.162275,0.102301,1016.549011
495138,0.371813,0.089418,0.069048,0.744197449,-0.092010816,0.140114286,-0.628593,-0.162355,0.1038,1016.549011
495238,0.413043,0.251899,0.043407,0.776427551,-0.086480102,0.1125,-0.629078,-0.16033,0.103402,1016.549011
495338,0.430058,0.343139,0.027817,0.817059592,-0.074120816,0.081337449,-0.628997,-0.161608,0.098827,1016.549011
495438,0.423707,0.34469,0.003678,0.849151837,-0.051624388,0.058889082,-0.628532,-0.159221,0.100954,1016.549011
495538,0.391627,0.289836,-0.021524,0.894155204,-0.025008367,0.064186633,-0.630957,-0.158515,0.09748,1016.549011
495638,0.347146,0.228977,-0.055598,0.951169796,-0.017338367,0.071906837,-0.628458,-0.159028,0.096955,1016.550781
495738,0.297359,0.170261,-0.076297,1.018402245,-0.021654898,0.055766939,-0.630422,-0.158924,0.095455,1016.550781
495838,0.251325,0.12539,-0.075276,1.085901327,-0.038388061,0.027367245,-0.632376,-0.158298,0.093481,1016.550781
495938,0.211327,0.096116,-0.066421,1.117864388,-0.061411531,0.015235306,-0.628951,-0.156031,0.097107,1016.550781
496038,0.1743,0.087354,-0.061442,1.110259388,-0.096278367,0.027894694,-0.627405,-0.153443,0.094736,1016.550781
496138,0.159203,0.071334,-0.052584,1.093401633,-0.127919592,0.040175306,-0.625358,-0.153829,0.091712,1016.550781
496238,0.197533,0.062061,-0.023517,1.01976898,-0.151716939,0.085848878,-0.628377,-0.15039,0.093889,1016.550781
496338,0.19377,0.025759,-0.008171,0.984934082,-0.146300204,0.125662857,-0.62687,-0.148396,0.093491,1016.550781
496438,0.196279,0.001738,0.005262,0.953668878,-0.138575612,0.138804796,-0.62587,-0.146419,0.093593,1016.550781
496538,0.23319,-0.02798,0.0186,0.922498061,-0.136248367,0.147075102,-0.626372,-0.142948,0.09427,1016.550781
496638,0.272205,-0.05324,0.036099,0.894322551,-0.131477449,0.145836633,-0.625938,-0.142626,0.097794,1016.550781
496738,0.310175,-0.078834,0.041077,0.863516939,-0.115273061,0.14829602,-0.626885,-0.140995,0.095371,1016.550781
496838,0.341501,-0.106789,0.041969,0.853257551,-0.092489592,0.1569,-0.622414,-0.137627,0.09655,1016.550781
496938,0.337372,-0.128058,0.031126,0.854796837,-0.065177551,0.165546531,-0.625473,-0.135281,0.100675,1016.550781
497038,0.322597,-0.150145,0.021439,0.859145204,-0.044098469,0.168223673,-0.62398,-0.135803,0.10065,1016.550781
497138,0.322058,-0.165609,0.014127,0.866429184,-0.037119796,0.174216633,-0.623955,-0.132267,0.099828,1016.550781
497238,0.286816,-0.181149,0.001431,0.874238163,-0.027876531,0.16940449,-0.622531,-0.130491,0.103928,1016.550781
497338,0.24795,-0.184469,-0.011531,0.882877653,-0.029061429,0.166064592,-0.622528,-0.128498,0.10403,1016.550781
497438,0.216562,-0.189954,-0.016786,0.895223469,-0.044196224,0.175511429,-0.622054,-0.132042,0.104852,1016.550781
497538,0.193702,-0.200988,-0.015671,0.899210204,-0.062715306,0.18328949,-0.619597,-0.129686,0.106979,1016.550781
497638,0.174596,-0.217142,-0.013459,0.910902041,-0.082761939,0.18599398,-0.621617,-0.129727,0.108478,1016.550781
497738,0.163098,-0.22547,-0.006711,0.91283398,-0.098173571,0.187215204,-0.617657,-0.12787,0.11008,1016.550781
497838,0.150769,-0.233993,-0.004172,0.905250408,-0.100864898,0.184208776,-0.619657,-0.126866,0.11063,1016.550781
497938,0.132903,-0.243481,-0.007778,0.889077857,-0.092614898,0.184053061,-0.615718,-0.127049,0.11313,1016.550781
498038,0.118933,-0.247357,-0.015146,0.878166429,-0.087120306,0.190900816,-0.61473,-0.126591,0.113656,1016.550781
498138,0.103342,-0.24715,-0.021411,0.876609184,-0.080361939,0.198572041,-0.615256,-0.126655,0.115155,1016.550781
498238,0.085749,-0.244633,-0.029427,0.883774694,-0.075891327,0.199674082,-0.61432,-0.128808,0.118052,1016.550781
498338,0.07623,-0.252067,-0.034864,0.886849082,-0.075384592,0.200285,-0.609826,-0.127859,0.117605,1016.550781
498438,0.071295,-0.259826,-0.04543,0.893490918,-0.086017857,0.198315816,-0.61086,-0.128438,0.119578,1016.550781
498538,0.068072,-0.271217,-0.050405,0.905366224,-0.107413367,0.189311633,-0.609852,-0.126935,0.119155,1016.550781
498638,0.066343,-0.271988,-0.05221,0.919705204,-0.121792653,0.174812857,-0.606488,-0.128299,0.125603,1016.550781
498738,0.071673,-0.264977,-0.05556,0.929788163,-0.130126122,0.164275714,-0.608014,-0.130341,0.127,1016.550781
498838,0.072138,-0.236776,-0.059336,0.942676939,-0.128537857,0.160429388,-0.604543,-0.12895,0.128077,1016.548523
498938,0.077718,-0.196396,-0.068131,0.950589898,-0.122393061,0.151145714,-0.604564,-0.130493,0.129,1016.548523
499038,0.084052,-0.16775,-0.078068,0.948172857,-0.115382245,0.128149694,-0.604612,-0.13161,0.131449,1016.548523
499138,0.102524,-0.172989,-0.092577,0.941073673,-0.118886429,0.111818469,-0.605103,-0.132574,0.130898,1016.548523
499238,0.141086,-0.196092,-0.107446,0.954215918,-0.130109082,0.098774796,-0.60168,-0.1323,0.134423,1016.548523
499338,0.207257,-0.186526,-0.128639,0.98797102,-0.145299388,0.096829388,-0.603687,-0.129825,0.135549,1016.548523
499438,0.29927,-0.113389,-0.160173,1.05791102,-0.146528061,0.130402347,-0.602741,-0.131954,0.137947,1016.548523
499538,0.33957,0.046072,-0.210087,1.138380918,-0.109458469,0.217722755,-0.603244,-0.134936,0.137794,1016.548523
499638,0.262247,0.220991,-0.284332,1.210123776,-0.043865204,0.331292653,-0.599739,-0.134943,0.136796,1016.548523
499738,0.084465,0.350331,-0.358351,1.285136939,0.030156939,0.427208367,-0.600782,-0.135546,0.139269,1016.548523
499838,-0.11097,0.440369,-0.412741,1.372625816,0.113890714,0.487667959,-0.601738,-0.138897,0.136592,1016.548523
499938,-0.240429,0.521687,-0.452922,1.394857245,0.21043602,0.478115306,-0.606179,-0.140699,0.13399,1016.548523
500038,-0.270814,0.586146,-0.495117,1.392777755,0.258223061,0.378873469,-0.603668,-0.145648,0.132237,1016.548523
500138,-0.222013,0.623034,-0.549491,1.346566735,0.223784184,0.247516122,-0.601653,-0.14314,0.131365,1016.548523
500238,-0.142913,0.598033,-0.591177,1.302887041,0.125203061,0.150635714,-0.599133,-0.147568,0.129138,1016.548523
500338,-0.086661,0.511473,-0.599098,1.310356122,0.03304551,0.098213469,-0.598135,-0.146587,0.129189,1016.548523
500438,-0.07638,0.384741,-0.555652,1.343700306,-0.080896429,0.045934082,-0.597134,-0.14907,0.128563,1016.548523
500538,-0.067994,0.229572,-0.462603,1.360415102,-0.188481327,-0.025512959,-0.597165,-0.150637,0.129986,1016.548523
500638,-0.053578,0.041854,-0.361143,1.325125,-0.228645306,-0.105566224,-0.596174,-0.148684,0.130588,1016.548523
500738,-0.071487,-0.14609,-0.284261,1.269341939,-0.201655816,-0.142057041,-0.594265,-0.148434,0.135112,1016.548523
500838,-0.077644,-0.241781,-0.235877,1.206699286,-0.141618061,-0.128399694,-0.592811,-0.145589,0.137764,1016.548523
500938,-0.037764,-0.259789,-0.222857,1.108817959,-0.082834286,-0.101248878,-0.593356,-0.145701,0.140263,1016.548523
501038,0.011871,-0.287913,-0.249293,0.99587602,-0.000224388,-0.06245,-0.593448,-0.144945,0.145311,1016.548523
501138,0.040107,-0.336308,-0.28927,0.919450408,0.080797653,-0.024848265,-0.591004,-0.145604,0.147786,1016.548523
501238,0.001029,-0.374284,-0.310498,0.821661531,0.154528061,0.035438061,-0.592533,-0.144181,0.149861,1016.548523
501338,-0.123289,-0.383525,-0.306074,0.761895918,0.199735306,0.085038878,-0.590102,-0.146359,0.152759,1016.548523
501438,-0.331808,-0.299969,-0.292903,0.733424082,0.221663776,0.121206735,-0.586652,-0.151469,0.154005,1016.548523
501538,-0.499465,-0.153738,-0.299911,0.710812245,0.239177245,0.113669286,-0.590706,-0.153567,0.157401,1016.548523
501638,-0.54572,0.115029,-0.232192,0.765437143,0.189505612,0.066709796,-0.587152,-0.157913,0.153175,1016.548523
501738,-0.518619,0.313121,-0.166733,0.781916939,0.142260102,-0.015487245,-0.590641,-0.163813,0.152369,1016.548523
501838,-0.425736,0.32881,-0.106513,0.790049082,0.097958163,-0.090085204,-0.590593,-0.16865,0.149117,1016.548523
501938,-0.302988,0.218142,-0.080262,0.836076837,0.075177857,-0.109466531,-0.589528,-0.171463,0.144966,1016.548523
502038,-0.174499,0.10173,-0.067406,0.933342347,0.038251122,-0.078473776,-0.590048,-0.173496,0.145864,1016.548523
502138,-0.039158,0.055734,-0.064946,1.034749898,-0.003907347,-0.031675102,-0.591548,-0.176462,0.145711,1016.548523
502238,0.079912,0.048011,-0.082811,1.115046327,-0.019094082,-0.013323571,-0.589577,-0.178036,0.146635,1016.548523
502338,0.150536,0.038689,-0.11561,1.166523367,-0.011759592,-0.021166837,-0.589557,-0.182448,0.144907,1016.548523
502438,0.186731,0.017139,-0.144574,1.166434388,0.01946551,-0.025873673,-0.592082,-0.185968,0.146228,1016.548523
502538,0.201447,-0.033993,-0.152557,1.104232041,0.050005714,-0.017805102,-0.595085,-0.183976,0.147328,1016.548523
502638,0.20354,-0.074384,-0.145854,1.039365816,0.073812755,0.029066224,-0.594584,-0.187448,0.146651,1016.548523
502738,0.159924,-0.095934,-0.11691,0.984719184,0.109034898,0.084958265,-0.596112,-0.185528,0.148751,1016.548523
502838,0.088741,-0.087258,-0.079003,0.932404796,0.12807551,0.13270602,-0.593636,-0.18858,0.149099,1016.548523
502938,-0.01141,-0.060064,-0.03109,0.894792143,0.141809898,0.153985816,-0.598602,-0.190446,0.147996,1016.548523
503038,-0.114297,-0.025005,0.015716,0.862938367,0.14735051,0.155054898,-0.597636,-0.19153,0.149445,1016.548523
503138,-0.194585,0.00382,0.051251,0.830105816,0.144480408,0.137260714,-0.598171,-0.191619,0.151444,1016.548523
503238,-0.235659,0.008429,0.078202,0.816616224,0.126586122,0.114867551,-0.59959,-0.190904,0.14747,1016.548523
503338,-0.241537,0.007669,0.103646,0.827211327,0.096683776,0.095766939,-0.60209,-0.190889,0.14797,1016.548523
503438,-0.225042,-0.00367,0.118719,0.841253265,0.066839184,0.076391837,-0.605121,-0.193927,0.149816,1016.548523
503538,-0.196137,-0.021319,0.127096,0.86381102,0.049725714,0.075717653,-0.607068,-0.194273,0.14729,1016.548523
503638,-0.169525,-0.036655,0.125826,0.887005408,0.048047551,0.086221939,-0.607545,-0.192723,0.146367,1016.548523
503738,-0.148116,-0.04964,0.123437,0.911092041,0.05347102,0.097761837,-0.607558,-0.19474,0.146765,1016.548523
503838,-0.128664,-0.056772,0.119343,0.927855102,0.074296735,0.106207551,-0.610074,-0.193776,0.148315,1016.548523
503938,-0.113531,-0.047528,0.1167,0.938486735,0.097143265,0.118802653,-0.609994,-0.195552,0.143715,1016.548523
504038,-0.102333,-0.033629,0.111719,0.93871602,0.115115,0.13014051,-0.610524,-0.192651,0.145866,1016.548523
504138,-0.09267,-0.009353,0.1066,0.938855408,0.121937347,0.144304694,-0.616522,-0.193601,0.146813,1016.548523
504238,-0.084075,0.021107,0.109602,0.94516051,0.12709949,0.155751224,-0.616031,-0.192138,0.147389,1016.548523
504338,-0.076325,0.061278,0.115932,0.948170612,0.132848673,0.169067551,-0.61599,-0.190049,0.145492,1016.548523
504438,-0.076281,0.093526,0.12325,0.930279082,0.130831429,0.168894388,-0.61501,-0.194075,0.145788,1016.548523
504538,-0.068906,0.079062,0.13169,0.919874082,0.118024286,0.16872551,-0.617464,-0.188981,0.144542,1016.548523
504638,-0.077583,0.051188,0.138315,0.914168673,0.104253776,0.175778673,-0.616479,-0.190017,0.144992,1016.548523
504738,-0.08581,0.015945,0.143086,0.909528367,0.090343673,0.184371939,-0.621911,-0.189312,0.142516,1016.548523
504838,-0.08437,-0.006218,0.151081,0.908529898,0.079841735,0.199687245,-0.621458,-0.188941,0.145041,1016.548523
504938,-0.081768,0.013771,0.160257,0.915362653,0.072266531,0.200604082,-0.621437,-0.187399,0.144118,1016.548523
505038,-0.071935,0.041745,0.174039,0.909656122,0.062997755,0.187192449,-0.62245,-0.186435,0.145168,1016.548523
505138,-0.050146,0.052344,0.184496,0.899723878,0.063613878,0.178712143,-0.624465,-0.183486,0.146819,1016.548523
505238,-0.03276,0.044946,0.189457,0.890135612,0.070561531,0.173431327,-0.624429,-0.183888,0.144794,1016.548523
505338,-0.012133,0.020013,0.195335,0.88913051,0.069890918,0.170151429,-0.623429,-0.181911,0.144896,1016.548523
505438,0.013169,0.002959,0.202101,0.897221837,0.064292551,0.169078163,-0.624962,-0.18298,0.146844,1016.548523
505538,0.053228,0.004973,0.21263,0.910344286,0.056122551,0.16917102,-0.625388,-0.178818,0.143549,1016.548523
505638,0.087996,0.023515,0.225079,0.92499551,0.053577449,0.171207959,-0.62542,-0.180883,0.144947,1016.548523
505738,0.103382,0.048503,0.231195,0.944614592,0.056942551,0.173594694,-0.627449,-0.175491,0.147724,1016.548523
505838,0.097767,0.06466,0.231473,0.954280918,0.06861102,0.185339796,-0.627466,-0.174542,0.148775,1016.548523
505938,0.085071,0.068617,0.222487,0.965218265,0.081686939,0.199507653,-0.629412,-0.174391,0.146275,1016.548523
506038,0.069772,0.071482,0.205783,0.975306429,0.095744082,0.220099184,-0.632436,-0.173443,0.148324,1016.548523
506138,0.065862,0.101588,0.189818,0.99493102,0.104766122,0.228415918,-0.632379,-0.1728,0.145351,1016.548523
506238,0.065981,0.161363,0.176603,1.013883878,0.108649796,0.239396429,-0.635872,-0.170776,0.145951,1016.548523
506338,0.074234,0.232104,0.17104,1.029286327,0.102303061,0.252767143,-0.633377,-0.173781,0.145299,1016.548523
506438,0.100635,0.288402,0.169681,1.043056327,0.090386633,0.281407755,-0.634361,-0.172246,0.144876,1016.548523
506538,0.148484,0.32817,0.179071,1.065719082,0.070373163,0.320279184,-0.636808,-0.173581,0.1423,1016.548523
506638,0.206769,0.36316,0.196493,1.079856939,0.049819898,0.367366327,-0.634277,-0.166573,0.141157,1016.548523
506738,0.263075,0.410952,0.223511,1.105931429,0.029475306,0.419719694,-0.640775,-0.168511,0.142053,1016.548523
506838,0.307057,0.513736,0.270491,1.160828571,-0.018969592,0.438862449,-0.638728,-0.163939,0.139783,1016.548523
506938,0.362983,0.623013,0.331812,1.232339388,-0.08248551,0.417230714,-0.640644,-0.162718,0.135835,1016.548523
507038,0.399664,0.70703,0.390435,1.273051837,-0.104429184,0.341310204,-0.644104,-0.15813,0.135063,1016.548523
507138,0.389593,0.770741,0.41961,1.299488878,-0.075559286,0.259837245,-0.649504,-0.154861,0.131215,1016.548523
507238,0.375865,0.806677,0.434247,1.352976429,-0.044201735,0.166697041,-0.650887,-0.14959,0.125971,1016.548523
507338,0.374723,0.701186,0.445573,1.426688469,-0.001815816,0.035359898,-0.653343,-0.145991,0.124649,1016.548523
507438,0.315027,0.459605,0.424322,1.510064184,0.076095408,-0.117037653,-0.655336,-0.140503,0.125427,1016.548523
507538,0.244028,0.195999,0.364274,1.503950816,0.139487041,-0.217527143,-0.65876,-0.136816,0.122605,1016.548523
507638,0.19281,-0.021799,0.278563,1.395079796,0.126058878,-0.21504449,-0.66023,-0.133256,0.121783,1016.548523
507738,0.132214,-0.190416,0.213459,1.285192653,0.065547755,-0.170213367,-0.662233,-0.128789,0.12301,1016.548523
507838,0.081064,-0.319978,0.190698,1.209375204,-0.009092449,-0.133951735,-0.662256,-0.12637,0.124637,1016.548523
507938,0.035037,-0.439918,0.203602,1.107591429,-0.062092449,-0.113008367,-0.661244,-0.122376,0.12434,1016.548523
508038,0.022812,-0.564348,0.224026,0.997195204,-0.099464898,-0.066441429,-0.659826,-0.11863,0.129042,1016.548523
508138,0.056458,-0.619672,0.233354,0.905170204,-0.124712959,-0.006932449,-0.658895,-0.113857,0.133295,1016.548523
508238,0.105876,-0.575393,0.235825,0.818627143,-0.168096837,0.025880612,-0.660897,-0.113849,0.133794,1016.548523
508338,0.168153,-0.46962,0.238507,0.730523367,-0.190075306,0.043793163,-0.659405,-0.109413,0.134523,1016.548523
508438,0.243696,-0.34045,0.23188,0.674446939,-0.19728051,0.057151327,-0.658938,-0.106528,0.136675,1016.548523
508538,0.334083,-0.183677,0.212719,0.672104286,-0.186675816,0.061037347,-0.659941,-0.105041,0.137251,1016.548523
508638,0.409203,-0.046799,0.198968,0.70067398,-0.161177551,0.057586224,-0.661957,-0.102591,0.138877,1016.548523
508738,0.456387,0.01804,0.190609,0.75302398,-0.118336224,0.053955102,-0.661927,-0.101024,0.137454,1016.548523
508838,0.467192,0.028515,0.179518,0.824977857,-0.061233673,0.058784796,-0.664879,-0.101378,0.135428,1016.548523
508938,0.452374,0.030278,0.16477,0.903169694,0.004290204,0.061981122,-0.668847,-0.096807,0.135155,1016.548523
509038,0.404228,0.024179,0.141323,0.966830102,0.081294592,0.043356122,-0.666864,-0.097361,0.135631,1016.548523
509138,0.319245,0.004221,0.114541,1.030761429,0.135285816,0.017384898,-0.669823,-0.096245,0.134181,1016.548523
509238,0.216291,-0.018655,0.081173,1.088643367,0.146372245,-0.021068265,-0.664863,-0.097368,0.135131,1016.548523
509338,0.107439,-0.049309,0.046576,1.117995,0.11237,-0.057860714,-0.670295,-0.097161,0.132631,1016.548523
509438,0.014284,-0.092751,0.009295,1.117868265,0.049768571,-0.066605306,-0.668276,-0.097619,0.131106,1016.548523
509538,-0.074118,-0.130468,-0.021902,1.111536939,-0.024893673,-0.042353571,-0.671264,-0.097073,0.131131,1016.548523
509638,-0.143932,-0.155795,-0.025168,1.072923878,-0.082613367,-0.001234694,-0.667247,-0.100029,0.12898,1016.548523
509738,-0.191509,-0.179273,-0.003321,1.022556837,-0.124922551,0.043430102,-0.667763,-0.099571,0.130005,1016.548523
509838,-0.221979,-0.189352,0.028799,0.987867959,-0.139334592,0.087266837,-0.667705,-0.09843,0.127057,1016.548523
509938,-0.234445,-0.176898,0.063082,0.957112653,-0.138056837,0.106347245,-0.666759,-0.100559,0.129455,1016.548523
510038,-0.223834,-0.180918,0.086853,0.917412653,-0.13250551,0.127163776,-0.667697,-0.099403,0.126507,1016.548523
510138,-0.202748,-0.192482,0.101603,0.89195898,-0.126562653,0.13206102,-0.66625,-0.100045,0.128981,1016.548523
510238,-0.177183,-0.210845,0.111994,0.877791122,-0.115830714,0.131777653,-0.667192,-0.100881,0.125931,1016.548523
510338,-0.141817,-0.219075,0.12346,0.878875612,-0.101991837,0.134548265,-0.665213,-0.10293,0.12633,1016.548523
510438,-0.11432,-0.204818,0.129845,0.890981735,-0.082772551,0.132279388,-0.667706,-0.104385,0.126253,1016.548523
510538,-0.095752,-0.178798,0.125145,0.879792755,-0.06285449,0.133165102,-0.6642,-0.103894,0.12528,1016.548523
510638,-0.106521,-0.149883,0.108745,0.880111837,-0.052019286,0.132829796,-0.666174,-0.104312,0.124254,1016.548523
510738,-0.131854,-0.125556,0.090031,0.872683673,-0.048086633,0.120992857,-0.668649,-0.105719,0.123178,1016.548523
510838,-0.164897,-0.12893,0.076987,0.864835714,-0.054508469,0.104106122,-0.666631,-0.106675,0.121628,1016.548523
510938,-0.185639,-0.165471,0.067281,0.856199082,-0.062779388,0.097965102,-0.664145,-0.109704,0.121476,1016.548523
511038,-0.197897,-0.193015,0.0614,0.870380204,-0.07739,0.103717857,-0.666617,-0.109616,0.120476,1016.548523
511138,-0.204697,-0.194011,0.054144,0.876414694,-0.092021837,0.11601551,-0.663145,-0.112685,0.120824,1016.548523
511238,-0.231654,-0.163725,0.04188,0.894807551,-0.10895102,0.133663163,-0.665076,-0.114478,0.117223,1016.548523
511338,-0.274246,-0.105003,0.028542,0.903812041,-0.120193367,0.148108061,-0.664604,-0.11852,0.11802,1016.548523
511438,-0.31057,-0.045085,0.012987,0.901228367,-0.125172959,0.152143878,-0.662546,-0.118383,0.114522,1016.548523
511538,-0.331235,-0.012048,-0.005374,0.906507041,-0.127104082,0.146139898,-0.663033,-0.122811,0.113293,1016.548523
511638,-0.338913,-0.006162,-0.022717,0.919281633,-0.132673367,0.137612551,-0.662495,-0.126186,0.110617,1016.548523
511738,-0.335751,-0.020746,-0.031889,0.930573265,-0.140915918,0.123443367,-0.66192,-0.125005,0.106669,1016.548523
511838,-0.308855,-0.042365,-0.034292,0.931729184,-0.155567857,0.110870408,-0.662436,-0.129505,0.106941,1016.550232
511938,-0.258129,-0.058103,-0.033915,0.925921327,-0.167977551,0.103496939,-0.660891,-0.132373,0.103789,1016.550232
512038,-0.195125,-0.056722,-0.031853,0.927573878,-0.18343602,0.101538469,-0.662311,-0.132157,0.099791,1016.550232
512138,-0.12983,-0.05306,-0.025787,0.932438571,-0.195527143,0.103711224,-0.661811,-0.136625,0.099062,1016.550232
512238,-0.079401,-0.037435,-0.017658,0.945686327,-0.197095306,0.119185714,-0.660844,-0.137211,0.100537,1016.550232
512338,-0.041688,-0.001156,-0.018289,0.975023163,-0.191932857,0.132148367,-0.662314,-0.139108,0.098935,1016.550232
512438,-0.006952,0.051572,-0.024536,1.007335,-0.182032857,0.152654592,-0.662841,-0.139671,0.100409,1016.550232
512538,0.011522,0.110235,-0.037961,1.034146327,-0.170910306,0.171335612,-0.664254,-0.140925,0.095834,1016.550232
512638,0.031557,0.162018,-0.057897,1.045164184,-0.161915,0.170715714,-0.664231,-0.143842,0.094182,1016.550232
512738,0.075733,0.215352,-0.077005,1.05457398,-0.152909592,0.179885306,-0.666206,-0.14426,0.093157,1016.550232
512838,0.146074,0.280213,-0.096071,1.070702041,-0.143623878,0.198897551,-0.667158,-0.145619,0.090581,1016.550232
512938,0.21952,0.341651,-0.120637,1.080793163,-0.12913398,0.212483367,-0.669622,-0.146005,0.089055,1016.550232
513038,0.270618,0.391629,-0.145194,1.084823061,-0.102897245,0.240432347,-0.668048,-0.148304,0.084431,1016.550232
513138,0.272725,0.434984,-0.179358,1.087175918,-0.076637755,0.291173469,-0.669027,-0.148738,0.083405,1016.550232
513238,0.226645,0.493356,-0.212129,1.09530449,-0.050074184,0.348388367,-0.671492,-0.150121,0.081829,1016.550232
513338,0.153279,0.579788,-0.249403,1.114418673,-0.019878061,0.390831122,-0.673448,-0.155449,0.07905,1016.550232
513438,0.074415,0.690525,-0.293613,1.14187449,0.003953673,0.401612245,-0.67337,-0.153264,0.075153,1016.550232
513538,0.026017,0.791879,-0.332261,1.156658673,0.014893265,0.372136939,-0.672315,-0.157097,0.071451,1016.550232
513638,0.015278,0.834091,-0.358722,1.146647755,0.009700612,0.309434694,-0.6742,-0.159267,0.065326,1016.550232
513738,0.029095,0.79243,-0.372377,1.130845102,-0.016273061,0.255946122,-0.672654,-0.161139,0.062226,1016.550232
513838,0.062278,0.710215,-0.372125,1.137797245,-0.042193878,0.204237143,-0.672072,-0.166387,0.056949,1016.550232
513938,0.071175,0.636827,-0.361145,1.184789898,-0.05802102,0.148640408,-0.670061,-0.171329,0.055196,1016.550232
514038,0.037452,0.556182,-0.334051,1.227372041,-0.078943673,0.069829184,-0.666999,-0.17218,0.051148,1016.550232
514138,-0.002776,0.437971,-0.287968,1.223847041,-0.099252653,-0.047486327,-0.668434,-0.174977,0.047496,1016.550232
514238,0.016638,0.233659,-0.259607,1.217429898,-0.127447857,-0.14062949,-0.666941,-0.175997,0.047446,1016.550232
514338,0.031055,0.025695,-0.249165,1.210376224,-0.088470612,-0.111513265,-0.664974,-0.180063,0.048243,1016.550232
514438,0.036622,-0.127446,-0.264356,1.186944184,-0.043292959,-0.02791398,-0.665972,-0.181043,0.048192,1016.550232
514538,0.036552,-0.217046,-0.28694,1.138227959,0.00236,0.040086429,-0.663545,-0.185213,0.050988,1016.550232
514638,0.027629,-0.271373,-0.306799,1.048264388,0.051559184,0.074461429,-0.659025,-0.185686,0.048965,1016.550232
514738,-0.017357,-0.338116,-0.311359,0.944016837,0.095733061,0.097879694,-0.657554,-0.188249,0.049838,1016.550232
514838,-0.114157,-0.40775,-0.314957,0.848494898,0.12665551,0.114990102,-0.657119,-0.192388,0.052634,1016.550232
514938,-0.24778,-0.438642,-0.312258,0.776694796,0.150917449,0.117882959,-0.655684,-0.194548,0.055531,1016.550232
515038,-0.405558,-0.390555,-0.285139,0.725092041,0.159976224,0.111176327,-0.653689,-0.203998,0.05405,1016.546204
515138,-0.577635,-0.260729,-0.248821,0.672425612,0.168312653,0.091440204,-0.651655,-0.206401,0.051424,1016.546204
515238,-0.682763,-0.10302,-0.200754,0.682606429,0.136174286,0.060719082,-0.652142,-0.215787,0.049442,1016.546204
515338,-0.671758,0.023012,-0.15151,0.730147041,0.09083551,0.023578469,-0.653509,-0.222377,0.041589,1016.546204
515438,-0.590537,0.105938,-0.090937,0.802627347,0.047422347,0.000526122,-0.653398,-0.227545,0.034812,1016.546204
515538,-0.489398,0.138698,-0.047809,0.887928469,0.018660612,-0.002346531,-0.655804,-0.232247,0.029559,1016.546204
515638,-0.374163,0.130916,-0.029814,0.991120816,-0.01040551,0.017445,-0.655817,-0.239222,0.029204,1016.546204
515738,-0.233402,0.122206,-0.021646,1.091633776,-0.040829286,0.048036633,-0.661122,-0.245628,0.01885,1016.546204
515838,-0.092159,0.117038,-0.023508,1.169709898,-0.059132143,0.057500612,-0.662584,-0.248498,0.016698,1016.546204
515938,0.016304,0.079665,-0.034213,1.22413398,-0.072051735,0.034535612,-0.66404,-0.252838,0.01397,1016.546204
516038,0.079803,0.030574,-0.045054,1.232280918,-0.06695051,0.012052143,-0.666498,-0.255691,0.011817,1016.546204
516138,0.101155,-0.001551,-0.054434,1.180578163,-0.057047245,0.012701633,-0.669456,-0.258537,0.009665,1016.546204
516238,0.096447,-0.057502,-0.06774,1.09823898,-0.050068571,0.043010714,-0.67041,-0.26139,0.007013,1016.546204
516338,0.08909,-0.142434,-0.074135,1.022426327,-0.038532959,0.106369592,-0.674889,-0.264284,0.006359,1016.546204
516438,0.040579,-0.204475,-0.060038,0.980629796,-0.024326429,0.165436939,-0.675865,-0.263224,0.00541,1016.546204
516538,-0.027885,-0.210179,-0.018217,0.958276224,-0.004413061,0.201147755,-0.680324,-0.265073,0.003808,1016.546204
516638,-0.109311,-0.175951,0.019214,0.934875102,0.029783776,0.202855816,-0.679795,-0.268472,0.001631,1016.546204
516738,-0.185725,-0.106411,0.045399,0.89654449,0.056008571,0.179199898,-0.684241,-0.268305,-0.00037,1016.546204
516838,-0.211359,-0.048966,0.058727,0.857148265,0.066649796,0.148277041,-0.68765,-0.27152,-0.005047,1016.546204
516938,-0.198602,-0.013009,0.067038,0.849320204,0.062657959,0.128514898,-0.69305,-0.273708,-0.009674,1016.546204
517038,-0.147231,-0.002892,0.074097,0.861764796,0.04190602,0.114431531,-0.6975,-0.270575,-0.011022,1016.546204
517138,-0.068282,-0.038081,0.076001,0.873621531,0.014363469,0.110907041,-0.702409,-0.271798,-0.015098,1016.546204
517238,-0.001593,-0.099566,0.078249,0.891142653,-0.006403673,0.116274388,-0.702358,-0.274145,-0.018224,1016.546204
517338,0.038688,-0.159169,0.072831,0.912975918,-0.014967857,0.121670204,-0.709765,-0.274356,-0.021751,1016.546204
517438,0.066623,-0.198469,0.060127,0.922398265,-0.009202347,0.12650602,-0.714215,-0.271223,-0.023099,1016.546204
517538,0.088555,-0.212075,0.034595,0.923755816,0.010969286,0.13402449,-0.721688,-0.272101,-0.023152,1016.546204
517638,0.098416,-0.214898,0.008758,0.913800816,0.037008469,0.138927449,-0.729167,-0.270512,-0.022578,1016.546204
517738,0.080186,-0.227185,-0.012723,0.900238571,0.056240918,0.139393265,-0.732632,-0.268914,-0.023503,1016.546204
517838,0.055303,-0.249043,-0.024305,0.885943878,0.065818878,0.147252959,-0.736702,-0.269565,-0.019031,1016.546204
517938,0.042923,-0.263053,-0.018969,0.880303163,0.073180204,0.164321429,-0.742646,-0.265911,-0.020355,1016.546204
518038,0.028103,-0.234336,-0.007251,0.88349398,0.079267449,0.178107755,-0.749121,-0.26085,-0.019603,1016.546204
518138,0.014223,-0.176227,0.001443,0.893769592,0.086065,0.177294796,-0.757597,-0.259743,-0.019055,1016.546204
518238,0.001962,-0.132376,0.013152,0.902156735,0.086184184,0.172531735,-0.762092,-0.255734,-0.017853,1016.546204
518338,0.010655,-0.12251,0.024636,0.903675408,0.086488776,0.159335612,-0.769551,-0.253599,-0.018254,1016.546204
518438,0.031066,-0.152865,0.026601,0.909282653,0.093334082,0.15094551,-0.772051,-0.248625,-0.017001,1016.546204
518538,0.045701,-0.196725,0.023648,0.937807959,0.093249592,0.156995306,-0.781507,-0.243991,-0.016775,1016.546204
518638,0.052488,-0.222212,0.016923,0.973632959,0.08539102,0.171978163,-0.782548,-0.237643,-0.013446,1016.546204
518738,0.043296,-0.236595,0.006261,0.998735612,0.077802245,0.179847347,-0.793069,-0.235154,-0.009824,1016.546204
518838,0.014063,-0.234516,-0.004882,1.007443163,0.073555204,0.185862755,-0.792552,-0.229657,-0.010044,1016.546204
518938,-0.013246,-0.198493,-0.015959,1.006111429,0.061053061,0.197498265,-0.798068,-0.229168,-0.008021,1016.546204
519038,-0.004278,-0.117053,-0.012191,1.008023776,0.027666122,0.206812959,-0.801055,-0.223166,-0.007218,1016.546204
519138,0.04029,-0.007584,-0.003362,1.009370102,-0.00898898,0.192225612,-0.80601,-0.218555,-0.00799,1016.546204
519238,0.090949,0.080063,0.002521,1.010698367,-0.029693571,0.172539286,-0.808538,-0.213654,-0.005238,1016.546204
519338,0.146643,0.116451,0.013901,0.945958673,-0.064484286,0.168991633,-0.814441,-0.208408,-0.008484,1016.546204
519438,0.1784,0.149925,0.008845,0.98191602,-0.057828367,0.172238673,-0.815419,-0.203386,-0.00873,1016.546204
519538,0.230131,0.175751,0.019684,0.975028469,-0.060761633,0.209157551,-0.817847,-0.199216,-0.011527,1016.546204
519638,0.242194,0.206628,0.036788,0.955617755,-0.069173469,0.249019388,-0.821897,-0.193865,-0.00725,1016.546204
519738,0.19093,0.232622,0.0676,0.951743469,-0.052149388,0.283508469,-0.823916,-0.193407,-0.005726,1016.546204
519838,0.104344,0.280246,0.09734,0.950672755,-0.01847898,0.307993367,-0.825338,-0.188731,-0.008996,1016.546204
519938,0.03318,0.34031,0.122281,0.955859388,0.038527857,0.317955816,-0.832329,-0.183212,-0.00722,1016.546204
520038,0.002571,0.420785,0.13753,0.979450306,0.088805306,0.311534388,-0.829757,-0.179073,-0.011014,1016.546204
520138,0.040017,0.515936,0.148366,1.027178163,0.100981837,0.294858265,-0.836725,-0.175475,-0.010839,1016.546204
520238,0.143096,0.606743,0.156874,1.083185612,0.081086224,0.255345306,-0.838686,-0.173378,-0.012237,1016.546204
520338,0.253554,0.632724,0.166806,1.142147449,0.048972245,0.219887653,-0.842035,-0.169,-0.019032,1016.546204
520438,0.317364,0.57321,0.168554,1.210137959,0.019342347,0.19294051,-0.84802,-0.167933,-0.018483,1016.546204
520538,0.319361,0.443868,0.153781,1.301375408,-0.009020816,0.159919184,-0.845991,-0.16291,-0.019728,1016.546204
520638,0.261028,0.316715,0.125904,1.440565,-0.031956224,0.130102143,-0.851405,-0.162654,-0.023228,1016.546204
520738,0.156169,0.249107,0.082926,1.547833673,-0.042103878,0.075682959,-0.852877,-0.160589,-0.024127,1016.546204
520838,0.01077,0.261959,0.031258,1.550030612,-0.031180306,0.008151735,-0.856843,-0.160478,-0.025128,1016.546204
520938,-0.13932,0.267662,-0.011752,1.396521122,-0.03807449,-0.042609388,-0.855773,-0.160301,-0.029126,1016.546204
521038,-0.201004,0.160806,-0.022938,1.248408878,-0.034402857,-0.048070408,-0.856178,-0.160052,-0.034124,1016.546204
521138,-0.175033,0.021599,-0.017135,1.159227653,-0.022534592,-0.01036551,-0.856665,-0.159024,-0.034573,1016.546204
521238,-0.112487,-0.067632,-0.013239,1.085144388,-0.013700816,0.03272898,-0.856637,-0.158952,-0.036072,1016.546204
521338,-0.021317,-0.113507,-0.017031,1.016036837,-0.005350714,0.054908673,-0.859141,-0.161427,-0.035701,1016.546204
521438,0.06958,-0.138712,-0.035464,0.910489184,-0.012564796,0.050202347,-0.858151,-0.159474,-0.035099,1016.546204
521538,0.183706,-0.153491,-0.050483,0.824062551,-0.028733265,0.048357551,-0.858186,-0.158076,-0.033023,1016.547974
521638,0.277783,-0.11714,-0.075309,0.744274388,-0.037129898,0.049005714,-0.860689,-0.160053,-0.032626,1016.547974
521738,0.343835,-0.0631,-0.110808,0.688116429,-0.03419102,0.053837959,-0.860674,-0.15704,-0.032973,1016.547974
521838,0.377841,-0.01665,-0.147439,0.648050204,-0.037190612,0.045688776,-0.859194,-0.159579,-0.0326,1016.547974
521938,0.437016,-0.002369,-0.155646,0.673482551,-0.056948265,0.027574388,-0.861239,-0.158197,-0.029526,1016.547974
522038,0.523819,-0.002193,-0.134787,0.765551429,-0.072108163,0.014953061,-0.864273,-0.157274,-0.026977,1016.547974
522138,0.584216,-0.000108,-0.096577,0.87732051,-0.063297551,0.012148776,-0.864346,-0.156968,-0.022953,1016.547974
522238,0.58769,0.015049,-0.042673,0.995241531,-0.046252959,0.023176122,-0.8629,-0.158109,-0.020504,1016.547974
522338,0.549259,0.041335,0.013618,1.103452449,-0.027635102,0.040254286,-0.865904,-0.156116,-0.019404,1016.547974
522438,0.464118,0.06342,0.063249,1.170574694,-0.004380204,0.039250408,-0.866471,-0.147856,-0.014474,1016.547974
522538,0.332133,0.048576,0.071882,1.184103265,0.02190102,0.02347898,-0.86504,-0.147051,-0.010924,1016.547974
522638,0.186849,-0.006122,0.025218,1.152462653,0.043850612,0.004245,-0.866591,-0.14767,-0.007951,1016.547974
522738,0.075343,-0.088283,-0.041978,1.113100918,0.048049592,0.000301939,-0.864099,-0.146713,-0.0079,1016.547974
522838,0.022452,-0.159068,-0.096415,1.071815918,0.043390306,0.017535612,-0.864625,-0.141819,-0.005646,1016.547974
522938,0.00225,-0.204741,-0.135412,1.032947857,0.026930102,0.041689796,-0.864147,-0.142374,-0.004672,1016.547974
523038,0.004105,-0.226686,-0.149659,1.004149082,0.000299796,0.075816429,-0.865227,-0.142575,-0.000174,1016.547974
523138,0.01925,-0.229418,-0.138434,0.994602143,-0.028770102,0.102100918,-0.861791,-0.140283,0.002953,1016.547974
523238,0.038561,-0.22891,-0.11254,0.982422245,-0.051531224,0.113672653,-0.860822,-0.139873,0.004478,1016.547974
523338,0.058473,-0.226821,-0.083723,0.961502755,-0.062918673,0.110686224,-0.859864,-0.140483,0.006452,1016.547974
523438,0.087614,-0.239985,-0.062039,0.923413673,-0.06006898,0.103013776,-0.861911,-0.1396,0.009501,1016.547974
523538,0.119535,-0.250518,-0.042973,0.901312653,-0.048343469,0.093701327,-0.860424,-0.138651,0.010052,1016.547974
523638,0.144528,-0.249539,-0.02888,0.894250408,-0.034732041,0.08209449,-0.857999,-0.139358,0.013526,1016.547974
523738,0.146875,-0.241685,-0.017509,0.900796633,-0.029521122,0.067703673,-0.858051,-0.137011,0.016652,1016.547974
523838,0.13183,-0.246429,-0.0159,0.890568673,-0.030234388,0.059405612,-0.858132,-0.135733,0.021226,1016.547974
523938,0.12139,-0.238423,-0.007011,0.917253469,-0.03268398,0.059540102,-0.858687,-0.136368,0.024199,1016.547974
524038,0.08498,-0.241734,-0.010661,0.950235612,-0.026949694,0.053462653,-0.858192,-0.132912,0.024878,1016.547974
524138,0.091784,-0.226063,0.013447,0.959442653,-0.032783571,0.062070204,-0.859332,-0.135749,0.032247,1016.547974
524238,0.039279,-0.238916,0.001745,0.995854286,-0.010915918,0.078657857,-0.855876,-0.137371,0.033672,1016.547974
524338,0.012518,-0.236972,0.00401,1.010464184,0.00438449,0.078197755,-0.857415,-0.136471,0.036221,1016.547974
524438,-0.021013,-0.229927,-0.000823,1.011720204,0.018192959,0.089800408,-0.853553,-0.137844,0.042669,1016.547974
524538,-0.089545,-0.193764,-0.011117,1.018125204,0.030357857,0.093996327,-0.857504,-0.134719,0.041321,1016.547974
524638,-0.168039,-0.155805,-0.028815,1.01421898,0.039717755,0.085311735,-0.856596,-0.136945,0.045718,1016.547974
524738,-0.234022,-0.111659,-0.048587,1.01137398,0.03989551,0.061540102,-0.854625,-0.133561,0.047395,1016.547974
524838,-0.279632,-0.07219,-0.06685,1.00287,0.027152245,0.034705,-0.854668,-0.136647,0.049242,1016.547974
524938,-0.311024,-0.040818,-0.081737,1.002307041,0.008447959,0.023181122,-0.854676,-0.141629,0.048988,1016.547974
525038,-0.332848,-0.011645,-0.09172,1.013737347,-0.010133061,0.02911051,-0.856674,-0.13913,0.049614,1016.547974
525138,-0.357372,0.011814,-0.100597,1.039423776,-0.023769694,0.045274184,-0.854686,-0.142151,0.049462,1016.547974
525238,-0.398109,0.027638,-0.104001,1.055703571,-0.025920918,0.058067755,-0.855159,-0.143566,0.047887,1016.547974
525338,-0.46097,0.05248,-0.109797,1.048780408,-0.020432959,0.084279184,-0.851657,-0.145566,0.046786,1016.547974
525438,-0.530637,0.094309,-0.123805,1.02891102,-0.009967551,0.10819051,-0.851154,-0.147543,0.046185,1016.547974
525538,-0.587102,0.146001,-0.142276,1.000508776,-0.001514694,0.118317959,-0.852102,-0.146908,0.043712,1016.547974
525638,-0.621735,0.188503,-0.158465,0.973513571,-0.009507653,0.104976939,-0.849576,-0.147848,0.041662,1016.547974
525738,-0.62028,0.192082,-0.162973,0.947191633,-0.029217959,0.084929898,-0.850534,-0.152196,0.038934,1016.547974
525838,-0.582275,0.180926,-0.153193,0.939593163,-0.050017857,0.094061429,-0.850478,-0.152051,0.035935,1016.547974
525938,-0.532653,0.19627,-0.139925,0.960870816,-0.05604398,0.130926531,-0.845993,-0.151126,0.035988,1016.547974
