time,gx,gy,gz,ax,ay,az,Mag_X,Mag_Y,Mag_Z,p
337908,-0.073253,0.119514,-0.042755,0.054180612,-0.941025102,0.22650102,0.291366,0.81067,-0.043472,1016.549011
338008,-0.066414,0.039876,-0.053819,0.015776224,-0.90129398,0.320100714,0.291367,0.811168,-0.043446,1016.549011
338108,-0.091859,0.057526,-0.117681,0.020570306,-0.876597959,0.390601837,0.291313,0.81202,-0.040397,1016.549011
338208,-0.154109,0.141079,-0.173765,0.048336735,-0.909807041,0.408026837,0.289287,0.813948,-0.038296,1016.549011
338308,-0.208254,0.205054,-0.179835,0.078780714,-0.941099286,0.391129592,0.290189,0.812695,-0.033349,1016.550781
338408,-0.222022,0.268811,-0.139267,0.11417,-0.970253265,0.350131939,0.288631,0.813547,-0.0298,1016.550781
338508,-0.219163,0.304424,-0.075809,0.136304184,-0.985275612,0.33626602,0.285684,0.811224,-0.032427,1016.550781
338608,-0.237939,0.317847,-0.007186,0.141497653,-0.979476429,0.324709796,0.285559,0.813876,-0.025277,1016.550781
338708,-0.25686,0.317077,0.049874,0.133411224,-0.963309898,0.324921735,0.285932,0.811064,-0.018907,1016.550781
338808,-0.278424,0.302108,0.078136,0.14607,-0.947122857,0.319124592,0.288407,0.812969,-0.017805,1016.550781
338908,-0.293686,0.271579,0.104641,0.149101633,-0.945451122,0.301124184,0.287846,0.808846,-0.015009,1016.550781
339008,-0.306807,0.214596,0.144086,0.14298449,-0.940174082,0.304936837,0.286787,0.80969,-0.01146,1016.550781
339108,-0.327527,0.142225,0.161251,0.125854184,-0.932702959,0.335856837,0.288714,0.80949,-0.007961,1016.550781
339208,-0.369146,0.128409,0.15809,0.114823061,-0.912600204,0.367735102,0.290123,0.808751,-0.003488,1016.550781
339308,-0.43095,0.158729,0.125735,0.100083469,-0.907879184,0.365999898,0.290027,0.806518,0.001409,1016.550781
339408,-0.535429,0.20919,0.105721,0.109374796,-0.911781429,0.355272653,0.289016,0.808976,0.002535,1016.550781
339508,-0.545885,0.210915,0.094726,0.082593265,-0.965888469,0.303464388,0.292854,0.804068,0.009805,1016.550781
339608,-0.507408,0.158325,0.086258,0.080038061,-0.968226327,0.285559184,0.29032,0.80598,0.012405,1016.550781
339708,-0.478584,0.144648,0.096828,0.094957347,-0.977210204,0.310364286,0.29167,0.803104,0.019775,1016.550781
339808,-0.526346,0.14108,0.1054,0.080197857,-0.966794898,0.319256327,0.291647,0.800564,0.020648,1016.550781
339908,-0.593279,0.112525,0.097147,0.060945918,-0.952997857,0.303193469,0.294543,0.800276,0.025647,1016.55011
340008,-0.609522,0.104566,0.078851,0.056471327,-0.950288469,0.280931327,0.296449,0.798533,0.03007,1016.55011
340108,-0.592052,0.110355,0.056694,0.062096429,-0.938874184,0.245950918,0.295343,0.799755,0.036143,1016.55011
340208,-0.551809,0.12113,0.04356,0.072763673,-0.973723776,0.230021939,0.295346,0.795793,0.03544,1016.55011
340308,-0.471827,0.115295,0.049896,0.079344388,-0.983766837,0.201265306,0.294739,0.797006,0.041514,1016.55011
340408,-0.366905,0.126363,0.083331,0.085353469,-0.986206327,0.192577245,0.296682,0.79536,0.043937,1016.55011
340508,-0.284364,0.15469,0.109108,0.086962347,-0.97684398,0.185829694,0.29807,0.793078,0.049334,1016.55011
340608,-0.205685,0.189767,0.118966,0.093127347,-0.966323776,0.160375612,0.296508,0.791439,0.052756,1016.55011
340708,-0.166341,0.155266,0.152048,0.061978163,-0.98333102,0.194970714,0.296474,0.793335,0.054856,1016.55011
340808,-0.18274,0.124864,0.204099,0.036036633,-0.963779592,0.237091531,0.299456,0.789302,0.054654,1016.55011
340908,-0.244905,0.119164,0.198885,0.014601531,-0.939570102,0.286976837,0.299448,0.790274,0.055205,1016.55011
341008,-0.329547,0.172791,0.173163,0.023075816,-0.94086949,0.306410918,0.302368,0.787567,0.058577,1016.55011
341108,-0.386398,0.263153,0.173822,0.033108571,-0.954606531,0.290711531,0.30125,0.786772,0.065049,1016.55011
341208,-0.403188,0.368944,0.193088,0.039766633,-0.952267245,0.275401122,0.3007,0.784168,0.067421,1016.55011
341308,-0.413121,0.503289,0.200566,0.045478163,-0.941628163,0.241508776,0.303621,0.782457,0.070844,1016.55011
341408,-0.384909,0.625247,0.21051,0.040374592,-0.935207041,0.187882653,0.302079,0.781862,0.073318,1016.55011
341508,-0.438473,0.587359,0.206149,0.03347051,-0.940008878,0.12422898,0.30194,0.781999,0.08084,1016.55011
341608,-0.401502,0.52436,0.214009,0.049318061,-0.973943776,0.113316531,0.306346,0.779742,0.084738,1016.55011
341708,-0.294982,0.459259,0.233842,0.060928061,-0.976888571,0.104399286,0.304737,0.777983,0.090659,1016.55011
341808,-0.162152,0.403489,0.244856,0.052303776,-0.96734051,0.124305714,0.30522,0.774961,0.091007,1016.55011
341908,-0.142482,0.349355,0.241312,0.030024592,-0.921503776,0.183015918,0.306144,0.775749,0.095056,1016.55011
342008,-0.096372,0.306218,0.176645,0.022529796,-0.93325551,0.223442245,0.305577,0.773596,0.098453,1016.55011
342108,-0.102056,0.326168,0.114995,0.061252143,-0.960558878,0.252335102,0.304526,0.773965,0.101477,1016.55011
342208,-0.104602,0.356837,0.103893,0.084916327,-0.973093673,0.210917857,0.304105,0.770204,0.096775,1016.55011
342308,-0.129435,0.315551,0.153512,0.074366837,-1.001980102,0.208271837,0.303942,0.77276,0.105924,1016.55011
342408,-0.175523,0.285101,0.235193,0.065917857,-1.003635612,0.238780408,0.306412,0.771676,0.106874,1016.55011
342508,-0.274248,0.394578,0.361705,0.078457857,-0.990779592,0.294260612,0.306344,0.769514,0.110271,1016.55011
342608,-0.262069,0.492402,0.38708,0.017613878,-1.004868061,0.219017041,0.30773,0.766236,0.115617,1016.55011
342708,-0.213754,0.504218,0.353457,0.031190918,-0.997507755,0.174966837,0.310682,0.766093,0.117617,1016.55011
342808,-0.159571,0.539044,0.359838,0.050605816,-1.006484898,0.1333,0.310147,0.761046,0.118862,1016.55011
342908,-0.111202,0.513961,0.377919,0.052854388,-1.019454286,0.095466327,0.313051,0.760283,0.123336,1016.55011
343008,-0.051611,0.461686,0.420523,0.01339,-1.024087857,0.091657551,0.314488,0.759617,0.12631,1016.55011
343108,-0.029453,0.381633,0.44767,-0.048940918,-1.003417653,0.117462857,0.316988,0.759104,0.125785,1016.55188
343208,-0.026482,0.315892,0.411846,-0.088479184,-0.983456939,0.174426939,0.316936,0.755994,0.128132,1016.55188
343308,-0.064637,0.333062,0.364705,-0.097292551,-0.992161939,0.237575816,0.320339,0.755722,0.132631,1016.55188
343408,-0.07596,0.534826,0.306889,-0.09879449,-0.90170602,0.291111429,0.320277,0.75209,0.135452,1016.55188
343508,-0.140875,0.799864,0.197057,-0.171041837,-0.866763571,0.40038898,0.318235,0.750506,0.137875,1016.55188
343608,-0.501147,0.804522,-0.036486,-0.264687245,-0.703151837,0.100016939,0.316613,0.751687,0.144948,1016.55188
343708,-0.753048,0.311826,-0.366581,-0.026152041,-0.884367551,0.105228673,0.313492,0.750401,0.151893,1016.55188
343808,-0.934638,-0.186026,-0.559291,0.07459051,-1.082630816,0.056525918,0.309959,0.750336,0.154391,1016.55188
343908,-0.813961,-0.39599,-0.542752,0.085297857,-1.168548469,0.031991735,0.307404,0.750705,0.157914,1016.55188
344008,-0.409319,-0.393126,-0.422447,0.062525816,-1.127410816,0.027912245,0.303899,0.75121,0.158938,1016.55188
344108,-0.082503,-0.359711,-0.292485,0.075704694,-1.120325612,0.130254388,0.302954,0.753838,0.156566,1016.55188
344208,0.028049,-0.259428,-0.172653,0.104013265,-1.073368571,0.221633469,0.301503,0.751989,0.153965,1016.55188
344308,0.065119,-0.127545,-0.066656,0.111967245,-1.074737143,0.215603571,0.298899,0.751241,0.159936,1016.55188
344408,0.160726,0.04344,0.069087,0.088399184,-1.049525,0.165479184,0.299996,0.750494,0.154388,1016.55188
344508,0.23787,0.140881,0.125894,0.028556633,-1.002056939,0.189013878,0.29901,0.751032,0.153913,1016.55188
344608,0.109176,0.016582,0.074035,0.006436429,-0.975733163,0.209427449,0.299449,0.748887,0.156811,1016.55188
344708,-0.082716,-0.143427,0.058012,0.011831633,-0.979035816,0.218545408,0.299999,0.74703,0.15371,1016.55188
344808,-0.177049,-0.223756,0.054581,0.018833469,-0.991464082,0.223515918,0.301469,0.748429,0.155286,1016.55188
344908,-0.199184,-0.190781,0.05318,0.049399082,-0.998041122,0.234933265,0.30298,0.747457,0.154236,1016.55188
345008,-0.260789,-0.050158,0.082166,0.049372755,-0.971040714,0.248606837,0.302462,0.746919,0.15521,1016.55188
345108,-0.371484,-0.0179,0.088668,0.016982551,-0.966129694,0.197285714,0.301877,0.744717,0.159607,1016.55188
345208,-0.494942,-0.025874,0.099091,0.003621531,-0.989590408,0.164711837,0.305428,0.744332,0.156084,1016.55188
345308,-0.547474,-0.029199,0.094415,0.003372449,-0.984171122,0.121305,0.306325,0.740588,0.160904,1016.55188
345408,-0.529491,-0.071814,0.066183,0.015206837,-0.999713469,0.07166898,0.306239,0.739374,0.165352,1016.55188
345508,-0.478221,-0.137656,0.049657,0.020673265,-0.99290398,0.050214694,0.308762,0.736442,0.163201,1016.55188
345608,-0.347304,-0.188103,0.051139,0.014444796,-0.99751102,0.071230408,0.307208,0.734328,0.166098,1016.55188
345708,-0.221725,-0.190271,0.068632,0.002378673,-0.975127653,0.104848673,0.306256,0.733468,0.163548,1016.55188
345808,-0.18892,-0.192754,0.079861,-0.004684592,-0.962639082,0.130443673,0.309731,0.731894,0.163972,1016.55188
345908,-0.187459,-0.143379,0.097611,-0.000472449,-0.948769388,0.145795,0.310161,0.729725,0.167369,1016.55188
346008,-0.194773,-0.011851,0.108268,-0.009180918,-0.942332653,0.118859592,0.310188,0.729299,0.165845,1016.55188
346108,-0.150524,0.095659,0.091397,-0.008108163,-0.95556102,0.085105408,0.314209,0.728833,0.163821,1016.55188
346208,-0.137153,0.13821,0.10401,0.013137857,-0.966249082,0.068283163,0.314633,0.728633,0.16782,1016.55188
346308,-0.213283,0.124695,0.152269,0.02178898,-0.969349694,0.069448163,0.313676,0.724783,0.165118,1016.549561
346408,-0.29704,0.007157,0.221099,-0.015566531,-0.999257449,0.063795918,0.313638,0.724189,0.167091,1016.549561
346508,-0.356588,-0.109419,0.276529,-0.043197143,-0.988624694,0.087671837,0.315637,0.722687,0.166516,1016.549561
346608,-0.373522,-0.131573,0.302551,-0.04337,-0.95634949,0.112507143,0.319626,0.719658,0.165864,1016.549561
346708,-0.301622,-0.04325,0.27888,-0.035286939,-0.959332755,0.157662653,0.318088,0.715599,0.16766,1016.549561
346808,-0.206184,0.05766,0.250143,-0.020607143,-0.957975918,0.157024184,0.321996,0.714347,0.171609,1016.549561
346908,-0.1276,0.102696,0.223214,0.005620918,-0.979277755,0.151681224,0.323532,0.711455,0.168958,1016.549561
347008,-0.043675,0.143373,0.216344,0.057611429,-0.99136398,0.131526735,0.325565,0.713512,0.167061,1016.549561
347108,-0.015732,0.210129,0.269797,0.105518061,-0.998362449,0.105168673,0.324572,0.710064,0.166383,1016.549561
347208,0.007037,0.249069,0.373846,0.103868571,-1.024095306,0.060037449,0.330521,0.709897,0.167885,1016.549561
347308,-0.019625,0.179558,0.488469,0.027652959,-1.02331551,0.042531735,0.331057,0.705027,0.165131,1016.549561
347408,-0.066593,0.074457,0.5476,-0.064371939,-0.978844184,0.063913673,0.334022,0.701942,0.16598,1016.549561
347508,-0.127081,0.035061,0.547261,-0.110012041,-0.934275102,0.087270102,0.338503,0.700875,0.16593,1016.549561
347608,-0.178076,0.068249,0.538564,-0.122430102,-0.927656327,0.093427245,0.34205,0.697999,0.162281,1016.549561
347708,-0.175455,0.046406,0.514487,-0.121680102,-0.936451327,0.091127143,0.346056,0.69452,0.160604,1016.549561
347808,-0.133899,-0.035906,0.465699,-0.120854082,-0.963722653,0.100534286,0.348548,0.690021,0.159877,1016.549561
347908,-0.134014,-0.132172,0.414413,-0.12468,-0.981346327,0.120080102,0.351523,0.687458,0.16025,1016.549561
348008,-0.207738,-0.175277,0.387547,-0.105073367,-0.986063776,0.130934184,0.355544,0.686495,0.158201,1016.549561
348108,-0.268739,-0.123442,0.419759,-0.06142102,-1.015081939,0.133404592,0.359535,0.684463,0.157601,1016.549561
348208,-0.301149,0.013876,0.521352,-0.041360306,-1.042168469,0.111130714,0.360459,0.680292,0.160897,1016.549561
348308,-0.328012,0.098624,0.636529,-0.074361429,-1.032567347,0.049269898,0.36944,0.678205,0.159799,1016.549561
348408,-0.27572,0.158477,0.708915,-0.132316327,-0.993217755,0.003651531,0.371986,0.672854,0.156021,1016.549561
348508,-0.179168,0.176668,0.715345,-0.161766122,-0.966997143,0.001798776,0.372944,0.666787,0.157216,1016.549561
348608,-0.021425,0.17898,0.665506,-0.193974898,-0.956070816,0.010061224,0.380456,0.663301,0.154542,1016.549561
348708,0.089418,0.162865,0.593049,-0.200561122,-0.938155816,0.033193061,0.382455,0.661799,0.153966,1016.549561
348808,0.168719,0.140098,0.508122,-0.191277755,-0.92217449,0.032567857,0.387931,0.659719,0.153866,1016.549561
348908,0.210426,0.062412,0.431234,-0.13993051,-0.957360918,0.059868878,0.388502,0.659406,0.149843,1016.549561
349008,0.26891,0.000768,0.384082,-0.073188776,-0.968647347,0.083471633,0.390513,0.653966,0.148064,1016.549561
349108,0.254316,-0.088505,0.378764,-0.053871633,-1.003874184,0.130502245,0.394592,0.654642,0.143093,1016.549561
349208,0.171957,-0.13747,0.386252,-0.066763163,-1.001926327,0.181269082,0.397094,0.650665,0.141891,1016.549561
349308,0.038326,-0.074375,0.409911,-0.052723265,-1.005946735,0.178770408,0.399131,0.649757,0.139342,1016.549561
349408,-0.056368,0.033703,0.462573,-0.022036429,-1.033949286,0.114453163,0.399617,0.647732,0.13974,1016.549561
349508,-0.097558,0.090454,0.528612,-0.013198163,-1.059319082,0.039427245,0.406089,0.640678,0.138886,1016.549561
349608,-0.040267,0.069118,0.576989,-0.035594898,-1.066735408,-0.010985,0.406088,0.64018,0.138861,1016.549561
349708,0.100215,0.015024,0.5696,-0.098942959,-1.054307551,0.009064592,0.409053,0.637095,0.139709,1016.549561
349808,0.229012,0.018841,0.500229,-0.179138673,-1.001421633,0.092486633,0.413096,0.633215,0.136009,1016.549561
349908,0.26415,0.056499,0.379735,-0.223530714,-0.991381224,0.153156224,0.414109,0.631752,0.134933,1016.549561
350008,0.279477,0.03125,0.260043,-0.207229592,-1.000596429,0.13848449,0.418142,0.627848,0.131732,1016.549561
350108,0.263518,-0.030679,0.174487,-0.165702347,-1.018694184,0.124875918,0.420651,0.627856,0.130733,1016.549561
350208,0.210457,-0.071061,0.156079,-0.128631939,-1.009947449,0.118199286,0.422189,0.62596,0.128133,1016.549561
350308,0.08553,-0.076524,0.16775,-0.125025816,-0.974162449,0.111801531,0.420729,0.624585,0.126057,1016.549561
350408,-0.063213,-0.030914,0.190192,-0.129749592,-0.973470714,0.106663061,0.424714,0.619066,0.125279,1016.549561
350508,-0.116673,0.063069,0.214391,-0.147924082,-0.983517653,0.07343,0.425204,0.62003,0.12583,1016.549561
350608,-0.093151,0.169676,0.229057,-0.183426122,-0.985110612,0.049701633,0.427118,0.617315,0.129703,1016.549561
350708,-0.006424,0.278633,0.21675,-0.223244796,-0.988870612,0.037080816,0.426625,0.614856,0.129075,1016.549561
350808,0.126698,0.377352,0.191548,-0.219400612,-0.990921327,0.010004286,0.426605,0.614309,0.130049,1016.549561
350908,0.326783,0.473813,0.141888,-0.238834184,-0.985514898,-0.006836122,0.427023,0.611119,0.133896,1016.549561
351008,0.573626,0.560812,0.072673,-0.257665102,-0.967322449,0.009525306,0.426574,0.612244,0.131447,1016.549561
351108,0.682472,0.612464,0.048147,-0.263551633,-0.940327653,0.031348061,0.428537,0.611642,0.132922,1016.547302
351208,0.657166,0.628253,0.023848,-0.264018265,-0.928582143,0.047763163,0.424081,0.611287,0.131396,1016.547302
351308,0.572092,0.582863,0.036227,-0.24548551,-0.927850306,0.056355714,0.423576,0.612766,0.131972,1016.547302
351408,0.56556,0.58346,0.070435,-0.200707551,-0.950528163,0.100286531,0.423089,0.613794,0.131522,1016.547302
351508,0.479414,0.580435,0.075845,-0.161657755,-0.948859388,0.128340714,0.420528,0.610676,0.134868,1016.547302
351608,0.314603,0.525938,0.128385,-0.118244388,-0.964908163,0.151825612,0.41955,0.610242,0.133843,1016.547302
351708,0.192556,0.512348,0.21708,-0.092860204,-0.984423571,0.161597653,0.421482,0.607574,0.136715,1016.547302
351808,0.088111,0.482566,0.311803,-0.110933571,-0.987157041,0.158577041,0.420393,0.607349,0.141713,1016.547302
351908,-0.034197,0.459819,0.37837,-0.163314694,-0.969178776,0.140220306,0.421841,0.602247,0.143458,1016.547302
352008,-0.092662,0.47998,0.401592,-0.214568673,-0.96747051,0.117173673,0.422756,0.598551,0.147279,1016.547302
352108,-0.06114,0.499748,0.380336,-0.233804694,-0.956937041,0.087325,0.423165,0.600295,0.152379,1016.547302
352208,-0.01276,0.481956,0.344877,-0.226732143,-0.952666122,0.054556122,0.424661,0.595811,0.151651,1016.547302
352308,0.020372,0.413592,0.297804,-0.20988449,-0.945832347,0.036545102,0.423593,0.592171,0.154972,1016.547302
352408,0.053313,0.325708,0.245858,-0.192945714,-0.960691122,0.079877449,0.42502,0.590982,0.15842,1016.547302
352508,0.028689,0.285656,0.178328,-0.175362143,-0.978847551,0.161135,0.423517,0.590982,0.158919,1016.547302
352608,-0.093572,0.220495,0.1595,-0.174630204,-0.999063163,0.197163776,0.422937,0.586811,0.162714,1016.547302
352708,-0.233468,0.145476,0.17258,-0.171415714,-1.008547551,0.184123163,0.423876,0.585654,0.165663,1016.549011
352808,-0.360561,0.101331,0.218906,-0.171256939,-0.995866735,0.16681051,0.425389,0.580721,0.16391,1016.549011
352908,-0.456467,0.08066,0.261639,-0.181964286,-0.974304592,0.125337551,0.426288,0.577973,0.168781,1016.549011
353008,-0.513411,0.065899,0.28676,-0.175527755,-0.944732041,0.077267653,0.427221,0.573827,0.171577,1016.549011
353108,-0.555305,0.014647,0.279259,-0.204851939,-0.932673367,0.052400612,0.428147,0.570653,0.174923,1016.549011
353208,-0.53477,-0.052656,0.248065,-0.251880204,-0.927504082,0.032040816,0.430043,0.562931,0.179041,1016.549011
353308,-0.436361,-0.140795,0.195234,-0.254132041,-0.957310612,0.036814388,0.429561,0.566949,0.178745,1016.549011
353408,-0.332988,-0.187996,0.163928,-0.273050204,-0.970727755,0.053533878,0.432071,0.562498,0.177017,1016.549011
353508,-0.291432,-0.204891,0.139084,-0.290060408,-0.954089796,0.06285551,0.434519,0.558874,0.178839,1016.549011
353608,-0.277987,-0.200284,0.124727,-0.285926939,-0.939953367,0.06198949,0.435434,0.555178,0.18266,1016.549011
353708,-0.306337,-0.189895,0.129736,-0.251975306,-0.947643571,0.058289184,0.432978,0.553819,0.180584,1016.549011
353808,-0.354471,-0.184268,0.14336,-0.225409694,-0.956257653,0.060964694,0.436438,0.549232,0.181356,1016.549011
353908,-0.381209,-0.142152,0.162649,-0.208273878,-0.953926122,0.065204592,0.437426,0.54969,0.181881,1016.549011
354008,-0.394033,-0.077534,0.184797,-0.230016837,-0.954294286,0.070413061,0.439349,0.546999,0.185254,1016.549011
354108,-0.348531,-0.007688,0.199398,-0.241132551,-0.942327653,0.055279592,0.43829,0.542884,0.188049,1016.549011
354208,-0.286704,0.035133,0.152834,-0.279091531,-0.933053571,0.043215306,0.436795,0.542908,0.188049,1016.549011
354308,-0.293526,-0.010676,0.078889,-0.304659898,-0.928094082,0.046857857,0.439239,0.537291,0.189769,1016.549011
354408,-0.315756,-0.076884,0.035833,-0.306138469,-0.936205816,0.056113061,0.43769,0.538167,0.192818,1016.549011
354508,-0.337415,-0.121413,0.026887,-0.295453878,-0.969435714,0.067789286,0.440648,0.536055,0.194217,1016.549011
354608,-0.304006,-0.130452,0.089302,-0.276438673,-0.960933367,0.071903061,0.440567,0.532374,0.198038,1016.549011
354708,-0.258957,-0.10711,0.108266,-0.250766531,-0.958317449,0.084283061,0.44004,0.531812,0.199512,1016.549011
354808,-0.315634,-0.07261,0.144431,-0.221348776,-0.939399184,0.097947653,0.442064,0.528389,0.197335,1016.549011
354908,-0.438071,-0.010766,0.209811,-0.195194694,-0.91742551,0.08544398,0.440554,0.524901,0.197657,1016.549011
355008,-0.504778,0.048922,0.26476,-0.198303776,-0.917313163,0.039877041,0.442883,0.522957,0.206078,1016.549011
355108,-0.482095,0.05567,0.312616,-0.234206735,-0.914183571,0.018174694,0.44429,0.520226,0.210449,1016.549011
355208,-0.409614,0.03244,0.337102,-0.274746224,-0.919943878,0.031085204,0.443703,0.517526,0.214821,1016.549011
355308,-0.285262,0.034462,0.328335,-0.302001837,-0.929167449,0.040425408,0.447634,0.512858,0.217092,1016.549011
355408,-0.214701,0.010152,0.292038,-0.318485612,-0.936184694,0.027423367,0.448097,0.508792,0.218389,1016.549011
355508,-0.205412,-0.049008,0.273104,-0.305512755,-0.951353878,0.040152755,0.450004,0.507547,0.222837,1016.549011
355608,-0.256991,-0.097298,0.272808,-0.289974082,-0.971429082,0.063246939,0.448467,0.504983,0.224708,1016.549011
355708,-0.359922,-0.092539,0.296822,-0.270497551,-0.969537755,0.060715714,0.451435,0.503393,0.225633,1016.549011
355808,-0.421857,-0.039877,0.340732,-0.250935918,-0.97589551,0.022085102,0.453403,0.499826,0.226455,1016.549011
355908,-0.411608,0.020592,0.38453,-0.267151939,-0.980141837,-0.019500306,0.455265,0.494499,0.232699,1016.549011
356008,-0.356059,0.0496,0.410404,-0.295279694,-0.981112347,-0.026688265,0.45275,0.491003,0.23352,1016.549011
356108,-0.278104,0.064452,0.396753,-0.320721224,-0.979206633,-0.023635,0.455715,0.487917,0.234368,1016.549011
356208,-0.192541,0.072625,0.351166,-0.36589051,-0.963569694,-0.020456939,0.459105,0.485629,0.239266,1016.549011
356308,-0.093396,0.066896,0.285333,-0.402412551,-0.960810918,-0.015317653,0.458597,0.485114,0.23974,1016.549011
356408,-0.006043,0.034356,0.215809,-0.416740306,-0.96429949,-0.005527041,0.460047,0.481507,0.241562,1016.549011
356508,0.019517,-0.019121,0.14134,-0.422861531,-0.949285408,0.008165102,0.457503,0.482398,0.244611,1016.549011
356608,0.001282,-0.042072,0.075714,-0.40460949,-0.940614898,0.011133163,0.459037,0.478509,0.241909,1016.549011
356708,-0.004366,-0.029361,0.018189,-0.371140714,-0.943878469,-0.013621633,0.458047,0.482012,0.242087,1016.549011
356808,-0.005352,-0.055701,-0.005697,-0.344390714,-0.946176122,-0.009151122,0.456496,0.481393,0.245059,1016.549011
356908,-0.079954,-0.078887,0.006444,-0.291696531,-0.945754796,0.021792551,0.458029,0.482462,0.243111,1016.549011
357008,-0.141998,-0.053284,0.040374,-0.241812347,-0.950130102,0.023589286,0.461483,0.479345,0.24446,1016.549011
357108,-0.138268,-0.008347,0.100116,-0.214793061,-0.957580102,0.007714694,0.458956,0.479787,0.246484,1016.549011
357208,-0.104428,0.046195,0.167582,-0.221513776,-0.958753469,-0.009286837,0.461397,0.478132,0.248907,1016.549011
357308,-0.036785,0.08862,0.203185,-0.254779796,-0.958991633,-0.023009388,0.461411,0.475689,0.247781,1016.549011
357408,0.022997,0.112326,0.220013,-0.281977449,-0.960598776,-0.030132041,0.462364,0.477546,0.250381,1016.549011
357508,0.107932,0.11378,0.221137,-0.287500306,-0.975677857,-0.052642041,0.462356,0.47802,0.250907,1016.549011
357608,0.172645,0.061013,0.214383,-0.307544388,-0.997587449,-0.047622143,0.461854,0.476035,0.250805,1016.549011
357708,0.208479,0.010451,0.219053,-0.320393061,-1.004477041,-0.016165918,0.464833,0.475963,0.251306,1016.549011
357808,0.22512,-0.036882,0.207486,-0.350508265,-0.998103878,0.006535,0.463301,0.475393,0.253279,1016.549011
357908,0.221559,-0.100577,0.167716,-0.362620204,-0.999261122,0.017630714,0.465338,0.473987,0.250705,1016.549011
358008,0.185953,-0.160177,0.123832,-0.366289286,-0.991188367,0.032300408,0.462922,0.474717,0.24673,1016.549011
358108,0.09137,-0.196053,0.084391,-0.355016429,-0.979776122,0.019423061,0.465405,0.475152,0.247257,1016.549011
358208,0.059043,-0.209305,0.047521,-0.354942449,-0.989637143,-0.00887449,0.468413,0.475651,0.246283,1016.549011
358308,0.104451,-0.206098,0.012214,-0.365434694,-0.998698469,-0.019175918,0.468924,0.472702,0.245131,1016.549011
358408,0.16535,-0.202789,-0.027996,-0.383992551,-0.991101531,-0.014788367,0.464988,0.47438,0.242707,1016.549011
358508,0.210672,-0.200616,-0.06196,-0.387815918,-0.988909082,-0.004397653,0.469538,0.474976,0.239235,1016.549011
358608,0.25016,-0.195544,-0.094125,-0.381293878,-0.982355714,0.014802959,0.46807,0.474573,0.23771,1016.549011
358708,0.263277,-0.164354,-0.121676,-0.37787949,-0.980527143,0.02273551,0.467666,0.480278,0.233491,1016.549011
358808,0.278455,-0.135801,-0.147178,-0.376192143,-0.968209184,0.021599694,0.467711,0.479403,0.230941,1016.549011
358908,0.315462,-0.114513,-0.173815,-0.360731429,-0.96767949,0.026412245,0.466283,0.480592,0.227493,1016.549011
359008,0.374524,-0.111555,-0.203403,-0.345598265,-0.963680204,0.040183265,0.46533,0.484191,0.225672,1016.549011
359108,0.433342,-0.12156,-0.235369,-0.312255918,-0.963698878,0.046337347,0.464381,0.484825,0.223197,1016.549011
359208,0.463926,-0.151346,-0.242456,-0.269955918,-0.96291398,0.054885408,0.463475,0.488546,0.218877,1016.549011
359308,0.466103,-0.180678,-0.226358,-0.246424184,-0.966820918,0.06526551,0.466562,0.491729,0.214032,1016.549011
359408,0.447277,-0.199082,-0.195961,-0.257961633,-0.952328163,0.083968878,0.4597,0.492128,0.208032,1016.549011
359508,0.422472,-0.187919,-0.184373,-0.283998571,-0.931793367,0.100912959,0.464706,0.495585,0.207212,1016.549011
359608,0.419816,-0.161359,-0.195238,-0.308319184,-0.924215,0.10575949,0.460793,0.494346,0.203136,1016.549011
359708,0.390104,-0.123478,-0.205732,-0.323716531,-0.909611939,0.112188163,0.460334,0.500405,0.201941,1016.549011
359808,0.329546,-0.102697,-0.218086,-0.327775816,-0.918544796,0.139838878,0.459966,0.50075,0.194944,1016.549011
359908,0.245046,-0.084988,-0.220407,-0.300778776,-0.928867347,0.163230816,0.459458,0.500236,0.195418,1016.549011
360008,0.175436,-0.051537,-0.194157,-0.270790816,-0.951341122,0.161704286,0.46003,0.505378,0.192174,1016.549011
360108,0.147214,-0.020231,-0.149309,-0.262725918,-0.964603265,0.155073673,0.461585,0.508488,0.189328,1016.549011
360208,0.141005,-0.005515,-0.1158,-0.25316949,-0.966633163,0.153073878,0.460588,0.508006,0.189302,1016.549011
360308,0.133537,-0.007496,-0.08244,-0.248986735,-0.982723776,0.148661429,0.460166,0.509203,0.185354,1016.549011
360408,0.109667,-0.041303,-0.055514,-0.244781531,-1.000737449,0.134758469,0.458695,0.511766,0.184481,1016.549011
360508,0.074651,-0.104947,-0.027575,-0.255419796,-1.020423163,0.133467449,0.462292,0.511003,0.178434,1016.549011
360608,0.031269,-0.178566,-0.011509,-0.278836429,-1.018807959,0.135744388,0.461836,0.514097,0.176587,1016.549011
360708,-0.018584,-0.251776,-0.023333,-0.314104694,-1.002446837,0.137007551,0.464397,0.517216,0.173241,1016.549011
360808,-0.064325,-0.309321,-0.064458,-0.320653061,-0.99911449,0.140263163,0.466422,0.514291,0.171091,1016.544983
360908,-0.081284,-0.331668,-0.12266,-0.325129694,-0.987403776,0.128067449,0.46703,0.519032,0.165822,1016.544983
361008,-0.105503,-0.355476,-0.183828,-0.312127755,-0.994115918,0.109431224,0.467554,0.517602,0.164246,1016.544983
361108,-0.098901,-0.363675,-0.247099,-0.305696429,-0.985810408,0.090046429,0.467659,0.519361,0.158824,1016.544983
361208,-0.072885,-0.328116,-0.310258,-0.294429286,-0.969848367,0.083593776,0.466231,0.52055,0.155376,1016.544983
361308,-0.042696,-0.282349,-0.367931,-0.303518265,-0.947102959,0.084905612,0.469304,0.526175,0.151658,1016.544983
361408,-0.02695,-0.233808,-0.428407,-0.290449694,-0.925736429,0.097643367,0.467883,0.525396,0.147608,1016.544983
361508,-0.035653,-0.135794,-0.471552,-0.265280204,-0.911691122,0.114122041,0.465956,0.531052,0.144888,1016.544983
361608,-0.06385,-0.021877,-0.503832,-0.247496837,-0.898757143,0.122931122,0.464476,0.534089,0.14454,1016.544983
361708,-0.112342,0.08699,-0.52457,-0.221230408,-0.905823163,0.132701531,0.463023,0.536701,0.142668,1016.544983
361808,-0.145768,0.217692,-0.513196,-0.190369796,-0.937421837,0.123497041,0.460011,0.539167,0.144293,1016.544983
361908,-0.119619,0.312717,-0.478049,-0.196254898,-0.936181735,0.09650398,0.459012,0.542646,0.144971,1016.544983
362008,-0.06059,0.387651,-0.446866,-0.211764388,-0.944794184,0.097617551,0.455538,0.544719,0.144571,1016.544983
362108,-0.046812,0.417715,-0.417719,-0.239727347,-0.948940612,0.116069592,0.452986,0.547081,0.148196,1016.544983
362208,-0.033154,0.436435,-0.401957,-0.26456051,-0.940122041,0.131906837,0.451479,0.550045,0.149348,1016.544983
362308,-0.01769,0.460101,-0.407931,-0.273285816,-0.935121633,0.153726735,0.453913,0.55482,0.153101,1016.544983
362408,-0.032066,0.489697,-0.416513,-0.260091429,-0.941971531,0.172326531,0.44938,0.558234,0.156276,1016.544983
362508,-0.06581,0.518718,-0.408484,-0.245114082,-0.948190204,0.184026837,0.445415,0.559342,0.155326,1016.544983
362608,-0.123395,0.523661,-0.381102,-0.230181122,-0.959616531,0.182604388,0.445797,0.561512,0.161951,1016.544983
362708,-0.17303,0.506922,-0.349223,-0.20658051,-0.969984184,0.160489286,0.44133,0.565095,0.161628,1016.544983
362808,-0.202538,0.474897,-0.309904,-0.205999286,-0.966559388,0.133763061,0.439792,0.566991,0.164228,1016.544983
362908,-0.213902,0.411018,-0.277113,-0.241601633,-0.978042041,0.101022449,0.441208,0.56974,0.168879,1016.544983
363008,-0.19304,0.334163,-0.285968,-0.260142245,-0.98076398,0.086943163,0.43767,0.57264,0.172029,1016.544983
363108,-0.155676,0.261987,-0.300742,-0.270610204,-0.984393878,0.073272245,0.434165,0.572647,0.173028,1016.544983
363208,-0.107499,0.190473,-0.332504,-0.27698551,-0.984765408,0.061723469,0.437124,0.576988,0.175256,1016.544983
363308,-0.094973,0.107446,-0.360384,-0.249954592,-0.989202347,0.065050612,0.436628,0.577992,0.175307,1016.544983
363408,-0.15449,0.060401,-0.368408,-0.195824796,-0.986019694,0.062020612,0.433173,0.580112,0.173908,1016.544983
363508,-0.212865,0.032212,-0.362345,-0.175339286,-0.986687959,0.057608571,0.43567,0.584059,0.174112,1016.544983
363608,-0.239015,0.019609,-0.362876,-0.186962551,-0.970136837,0.055162857,0.433615,0.584918,0.177661,1016.544983
363708,-0.25535,0.010003,-0.385061,-0.209939388,-0.948724592,0.066564286,0.432126,0.587932,0.177813,1016.544983
363808,-0.295902,0.024468,-0.416506,-0.209498776,-0.929993571,0.073971327,0.429612,0.590888,0.179464,1016.544983
363908,-0.306445,0.081571,-0.445748,-0.190624796,-0.92855,0.059296837,0.431575,0.589788,0.180913,1016.544983
364008,-0.296295,0.163968,-0.460591,-0.160881939,-0.933629898,0.035990102,0.42605,0.595211,0.18419,1016.544983
364108,-0.282731,0.269622,-0.454264,-0.127909388,-0.93878102,0.013661531,0.424568,0.597252,0.183791,1016.544983
364208,-0.257816,0.38946,-0.421954,-0.116122857,-0.948594388,-0.005539694,0.424031,0.601623,0.186519,1016.544983
364308,-0.213031,0.483508,-0.39543,-0.118156327,-0.962747857,-0.024288673,0.423471,0.602957,0.190093,1016.544983
364408,-0.159431,0.520257,-0.360346,-0.145907653,-0.981186939,-0.034744082,0.42089,0.60425,0.195167,1016.544983
364508,-0.119496,0.502298,-0.334355,-0.178330408,-0.983272755,-0.039890102,0.416406,0.60928,0.195919,1016.544983
364608,-0.096339,0.458022,-0.327607,-0.197506327,-0.978388163,-0.027488469,0.415867,0.6067,0.197791,1016.544983
364708,-0.083051,0.401633,-0.322364,-0.209338367,-0.983017857,-0.019422449,0.412873,0.614671,0.199197,1016.544983
364808,-0.078309,0.327542,-0.31173,-0.229062551,-0.979194796,-0.015745816,0.412817,0.614527,0.202195,1016.544983
364908,-0.124102,0.241778,-0.301329,-0.236974592,-0.947363776,-0.000529898,0.412803,0.616969,0.203322,1016.544983
365008,-0.191397,0.180006,-0.310304,-0.202199592,-0.94003602,0.006992347,0.409289,0.617451,0.204845,1016.544983
365108,-0.249589,0.154563,-0.298051,-0.151391531,-0.932147347,-0.012161735,0.408749,0.619829,0.207472,1016.544983
365208,-0.289002,0.156484,-0.266588,-0.090176531,-0.939294592,-0.037659592,0.410236,0.620778,0.208023,1016.544983
365308,-0.297363,0.168135,-0.208534,-0.040933469,-0.939034286,-0.079535204,0.40921,0.619725,0.209471,1016.544983
365408,-0.267084,0.17496,-0.13247,-0.013671633,-0.955106122,-0.115770816,0.409698,0.624153,0.210699,1016.544983
365508,-0.178117,0.167672,-0.051555,-0.015028878,-0.977330918,-0.13239602,0.410625,0.621976,0.214097,1016.544983
365608,-0.063184,0.136847,0.024426,-0.042996429,-0.996916531,-0.117416429,0.409142,0.623518,0.213673,1016.544983
365708,-0.008503,0.092195,0.0768,-0.075692041,-0.997263061,-0.087396122,0.410624,0.621478,0.214071,1016.544983
365808,-0.029282,0.041746,0.107093,-0.105057959,-1.007016122,-0.066442959,0.412647,0.618055,0.211895,1016.544983
365908,-0.071195,-0.026811,0.118211,-0.135813776,-1.02266602,-0.057557245,0.412633,0.620498,0.213022,1016.544983
366008,-0.125181,-0.057488,0.123124,-0.121437857,-1.03413398,-0.043599694,0.414621,0.617975,0.212895,1016.544983
366108,-0.194217,-0.033118,0.130868,-0.101766633,-1.04437898,-0.043482245,0.416112,0.615958,0.212794,1016.544983
366208,-0.255578,0.043727,0.140531,-0.083727959,-1.053024082,-0.059069796,0.416673,0.614624,0.209219,1016.544983
366308,-0.282502,0.15284,0.147889,-0.087101633,-1.057411224,-0.097445612,0.417058,0.613829,0.215192,1016.544983
366408,-0.252121,0.241718,0.134449,-0.115662041,-1.057151633,-0.138292857,0.416506,0.609233,0.217462,1016.544983
366508,-0.180082,0.264125,0.086525,-0.162404796,-1.046418673,-0.148986429,0.420012,0.609724,0.216489,1016.544983
366608,-0.110652,0.24097,0.002061,-0.232015306,-1.021393265,-0.122424898,0.420993,0.606196,0.216811,1016.544983
366708,-0.055136,0.195528,-0.113484,-0.266988367,-0.995825102,-0.092138571,0.420018,0.607755,0.215887,1016.544983
366808,-0.04008,0.146176,-0.236658,-0.24208449,-0.978442347,-0.081269286,0.418075,0.609402,0.213464,1016.544983
366908,-0.045973,0.109559,-0.323841,-0.187632041,-0.973263469,-0.081247041,0.4161,0.608983,0.212438,1016.544983
367008,-0.035003,0.092053,-0.365865,-0.139898061,-0.963594184,-0.091966939,0.417119,0.611507,0.211566,1016.544983
367108,0.004953,0.078347,-0.374933,-0.099875204,-0.946168469,-0.089204184,0.413105,0.610501,0.213013,1016.544983
367208,0.023539,0.052347,-0.359979,-0.058768265,-0.934411224,-0.077051122,0.410242,0.613851,0.206668,1016.544983
367308,0.000169,0.032963,-0.312674,-0.015252245,-0.932251224,-0.068193265,0.410232,0.613329,0.207142,1016.542786
367408,-0.021789,0.009529,-0.239106,1.37E-05,-0.93744,-0.074971633,0.411262,0.611416,0.205041,1016.542786
367508,-0.013256,-0.016486,-0.161248,0.002035102,-0.928905714,-0.097921531,0.407834,0.613111,0.202117,1016.542786
367608,0.010277,-0.04206,-0.096042,-0.004703061,-0.933457755,-0.114354184,0.410283,0.610982,0.204016,1016.542786
367708,0.046481,-0.052075,-0.048918,-0.03345602,-0.941919184,-0.107288776,0.410866,0.611689,0.199543,1016.542786
367808,0.059191,-0.056136,-0.02984,-0.088522755,-0.939735714,-0.085961939,0.410874,0.610717,0.198993,1016.542786
367908,0.068124,-0.056478,-0.045153,-0.130861531,-0.940258673,-0.077935918,0.412416,0.611312,0.196519,1016.542786
368008,0.100577,-0.061677,-0.080073,-0.15355102,-0.939093367,-0.076082653,0.410951,0.612404,0.19507,1016.542786
368108,0.133964,-0.058114,-0.113161,-0.140057449,-0.944650204,-0.067846939,0.411017,0.613071,0.191597,1016.542786
368208,0.156248,-0.064402,-0.134356,-0.117494796,-0.957925612,-0.059866327,0.410061,0.614678,0.189674,1016.542786
368308,0.160477,-0.074994,-0.135293,-0.095009898,-0.967291327,-0.052910816,0.408548,0.614654,0.190673,1016.542786
368408,0.165381,-0.077241,-0.11509,-0.078885408,-0.978747347,-0.052616939,0.407617,0.615336,0.1872,1016.542786
368508,0.179142,-0.075352,-0.079439,-0.071248571,-0.994364898,-0.049253163,0.40856,0.616172,0.190249,1016.542786
368608,0.170202,-0.056684,-0.025788,-0.060850204,-1.01434551,-0.039956633,0.410593,0.61823,0.188352,1016.542786
368708,0.136442,-0.019627,0.038357,-0.067488469,-1.042752041,-0.027976224,0.410554,0.622593,0.19108,1016.542786
368808,0.116373,0.025322,0.101872,-0.095452347,-1.070568265,-0.023403673,0.40958,0.619692,0.189428,1016.542786
368908,0.118946,0.051585,0.145807,-0.134317551,-1.080381429,-0.022074592,0.407112,0.621773,0.188529,1016.546204
369008,0.123116,0.074272,0.161789,-0.185919184,-1.075519286,-0.013388878,0.408535,0.623051,0.192604,1016.546204
369108,0.125256,0.078536,0.13887,-0.231477245,-1.057042551,0.000971531,0.410507,0.621975,0.193554,1016.546204
369208,0.120639,0.055743,0.079137,-0.247690306,-1.030123571,0.007133878,0.407585,0.623187,0.190105,1016.546204
369308,0.104662,-0.007254,0.004963,-0.237799592,-1.007522653,0.013894592,0.407082,0.625662,0.190732,1016.546204
369408,0.080739,-0.088115,-0.064598,-0.198878265,-0.991412959,0.021499796,0.407091,0.625686,0.190232,1016.546204
369508,0.06715,-0.161496,-0.116134,-0.146087857,-0.974884694,0.024747857,0.406686,0.625935,0.185234,1016.546204
369608,0.056081,-0.238131,-0.141778,-0.097116735,-0.959232551,0.011413878,0.406176,0.629382,0.186411,1016.546204
369708,0.070349,-0.315764,-0.140486,-0.041503469,-0.958751531,0.004910306,0.40871,0.632927,0.18459,1016.546204
369808,0.075631,-0.374847,-0.104551,-0.009762551,-0.955523265,0.00950102,0.408361,0.63332,0.176593,1016.546204
369908,0.058501,-0.417253,-0.050401,-0.009476531,-0.941081429,0.010149592,0.405382,0.63389,0.176118,1016.546204
370008,0.038493,-0.42198,0.003939,-0.022908469,-0.941749796,0.006814082,0.409442,0.634517,0.172146,1016.546204
370108,0.012663,-0.379482,0.045041,-0.03727,-0.944175612,-0.002663878,0.408487,0.636622,0.170248,1016.546204
370208,0.000795,-0.292951,0.092205,-0.049652755,-0.958049082,-0.025805714,0.411023,0.636205,0.167725,1016.546204
370308,0.024483,-0.214699,0.120284,-0.082849694,-0.970717449,-0.046211327,0.41006,0.633826,0.165598,1016.546204
370408,0.066999,-0.167436,0.145344,-0.116357755,-0.986335204,-0.044009082,0.41259,0.634879,0.16365,1016.546204
370508,0.083145,-0.148584,0.155939,-0.156101429,-0.987105306,-0.025350918,0.412092,0.635386,0.163676,1016.547974
370608,0.069434,-0.142594,0.149238,-0.199899592,-0.985882755,-0.00791551,0.410672,0.635602,0.159677,1016.547974
370708,0.038948,-0.15404,0.116176,-0.227883878,-0.982537653,0.011473163,0.415648,0.637492,0.16028,1016.547974
370808,0.000753,-0.169878,0.0662,-0.212757857,-0.984080714,0.017386837,0.414721,0.635209,0.156154,1016.547974
370908,-0.025379,-0.190572,0.026998,-0.171792245,-0.994346939,0.008035408,0.418152,0.634511,0.159129,1016.547974
371008,-0.032302,-0.218361,0.000871,-0.136580612,-0.996443878,0.000972245,0.417253,0.637259,0.154257,1016.547974
371108,-0.04455,-0.253542,-0.007024,-0.110872347,-0.993695816,0.004212041,0.418746,0.636239,0.154207,1016.547974
371208,-0.055111,-0.288748,-0.002377,-0.094285102,-0.992068061,0.013048163,0.419292,0.637347,0.151759,1016.547974
371308,-0.067131,-0.313017,0.011264,-0.101409082,-0.980702551,0.024120204,0.416834,0.63995,0.150386,1016.547974
371408,-0.102923,-0.31395,0.032059,-0.099684082,-0.978261531,0.029002143,0.420872,0.638537,0.147312,1016.547974
371508,-0.128739,-0.300352,0.055555,-0.108130918,-0.983476633,0.019870714,0.420869,0.637043,0.147236,1016.547974
371608,-0.158759,-0.279397,0.07758,-0.131002653,-0.986620918,0.019612755,0.421862,0.635034,0.147134,1016.547974
371708,-0.179251,-0.247759,0.091499,-0.148988163,-0.980667653,0.00998602,0.421321,0.636914,0.149734,1016.547974
371808,-0.179787,-0.212536,0.093924,-0.148218061,-0.980952959,-0.006705816,0.422399,0.636119,0.145186,1016.547974
371908,-0.155868,-0.173442,0.090526,-0.142780714,-0.985070102,-0.023057347,0.424897,0.635107,0.144636,1016.547974
372008,-0.115767,-0.161921,0.077518,-0.14775449,-0.985231939,-0.024518367,0.424402,0.636609,0.144712,1016.547974
372108,-0.092375,-0.175587,0.059689,-0.140173061,-0.98779898,-0.01419449,0.423376,0.635556,0.14616,1016.547974
372208,-0.081147,-0.200227,0.043278,-0.139328265,-0.991276224,0.00027051,0.424397,0.634118,0.144585,1016.547974
372308,-0.070959,-0.24526,0.026248,-0.141006531,-0.997118776,0.010747959,0.425958,0.634761,0.141112,1016.547974
372408,-0.092752,-0.287295,0.012333,-0.123090306,-0.997440204,0.02059102,0.42491,0.631667,0.143459,1016.547974
372508,-0.136864,-0.29962,0.013319,-0.105212653,-1.006026122,0.016255714,0.427476,0.632817,0.139512,1016.547974
372608,-0.161738,-0.299314,0.018585,-0.099427857,-1.013743776,-0.009870306,0.427447,0.631748,0.14096,1016.547974
372708,-0.160776,-0.30011,0.031048,-0.096674898,-1.026035714,-0.020264286,0.429029,0.628976,0.13581,1016.547974
372808,-0.166788,-0.29953,0.040127,-0.112424796,-1.00834398,-0.026668367,0.42854,0.629008,0.135311,1016.547974
372908,-0.181725,-0.259903,0.040773,-0.126894388,-0.994742755,-0.028684082,0.430487,0.629354,0.137836,1016.547974
373008,-0.158397,-0.197963,0.02609,-0.148370204,-0.98466449,-0.043594082,0.429481,0.629346,0.138335,1016.547974
373108,-0.103241,-0.147069,0.00069,-0.16198551,-0.981606224,-0.053710102,0.431016,0.630913,0.136413,1016.547974
373208,-0.034285,-0.0978,-0.019914,-0.156866837,-0.985096224,-0.049285408,0.428003,0.627923,0.137259,1016.547974
373308,0.003395,-0.058043,-0.033163,-0.144946224,-0.982385204,-0.036952653,0.430522,0.627956,0.13576,1016.547974
373408,0.027938,-0.034693,-0.040052,-0.148437755,-0.980386122,-0.025138265,0.429983,0.625874,0.137657,1016.547974
373508,0.034025,-0.036786,-0.048987,-0.14670102,-0.974326327,-0.011102959,0.430568,0.628076,0.133261,1016.547974
373608,-0.009352,-0.041237,-0.043156,-0.119765306,-0.977503878,0.002978673,0.430497,0.62442,0.136582,1016.547974
373708,-0.070451,-0.042909,-0.024613,-0.10553551,-0.99089,0.004070408,0.428068,0.628092,0.13376,1016.547974
373808,-0.116475,-0.04703,-0.002659,-0.114685102,-0.997739388,0.001542449,0.430012,0.626445,0.136184,1016.547302
373908,-0.141916,-0.046179,0.005891,-0.130460714,-0.997687959,-0.013213673,0.427491,0.625416,0.137631,1016.547302
374008,-0.145208,-0.030316,0.004051,-0.141416633,-0.995190204,-0.022442245,0.428977,0.625866,0.138157,1016.547302
374108,-0.12712,-0.011643,0.001941,-0.145218673,-0.99203398,-0.031929082,0.42951,0.62446,0.136082,1016.547302
374208,-0.090246,0.013338,-0.006328,-0.142837041,-0.988670102,-0.041515918,0.427969,0.624363,0.13858,1016.547302
374308,-0.04209,0.045961,-0.013535,-0.143808673,-0.984902551,-0.045102551,0.426955,0.624829,0.139605,1016.547302
374408,0.019179,0.064373,-0.028136,-0.145981633,-0.985720714,-0.042955408,0.426938,0.625777,0.140656,1016.547302
374508,0.06643,0.064386,-0.04132,-0.140363367,-0.982212041,-0.027413878,0.428447,0.623311,0.139529,1016.547302
374608,0.083052,0.048296,-0.054089,-0.148359796,-0.981024082,-0.00356602,0.425503,0.62298,0.137004,1016.547302
374708,0.066943,0.017546,-0.0673,-0.144305612,-0.978137347,0.012380408,0.426403,0.625689,0.142654,1016.547302
374808,0.012129,-0.010284,-0.063904,-0.128775918,-0.984218469,0.020646327,0.426476,0.625383,0.138631,1016.547302
374908,-0.031187,-0.029192,-0.047195,-0.111550918,-0.989776531,-0.001294898,0.425445,0.626797,0.140706,1016.547302
375008,-0.052148,-0.034346,-0.022174,-0.104319286,-0.985450612,-0.017577857,0.423459,0.62486,0.140104,1016.547302
375108,-0.051833,-0.031719,-0.003331,-0.104488469,-0.985303673,-0.032688061,0.427954,0.626308,0.139682,1016.547302
375208,-0.040369,-0.030119,0.01295,-0.105122551,-0.983554082,-0.037733673,0.425965,0.628333,0.139782,1016.547302
375308,-0.024294,-0.028969,0.022619,-0.116142857,-0.985958061,-0.037430102,0.423955,0.623856,0.140053,1016.547302
375408,-0.011073,-0.032333,0.0238,-0.133729592,-0.984752551,-0.034314694,0.426948,0.6263,0.140181,1016.549011
375508,-0.007755,-0.03454,0.019397,-0.144149898,-0.989708571,-0.027247959,0.426455,0.629297,0.140333,1016.549011
375608,-0.012546,-0.04359,0.007402,-0.15573,-0.991961531,-0.019164388,0.425934,0.626765,0.141206,1016.549011
375708,-0.022376,-0.049762,-0.004723,-0.159344286,-0.987101531,-0.012298878,0.42689,0.62466,0.143104,1016.549011
375808,-0.038411,-0.041467,-0.019119,-0.148674592,-0.983638571,-0.013164694,0.427416,0.624725,0.141604,1016.549011
375908,-0.062026,-0.033046,-0.026325,-0.128145714,-0.989150816,-0.018731429,0.42692,0.626227,0.14168,1016.549011
376008,-0.074543,-0.027978,-0.018638,-0.128976735,-0.984419694,-0.02680051,0.422915,0.625246,0.142628,1016.549011
376108,-0.078028,-0.028554,-0.024319,-0.121161224,-0.979290102,-0.04318398,0.425865,0.624106,0.144577,1016.549011
376208,-0.065051,-0.027708,-0.018511,-0.113387347,-0.981368571,-0.053205,0.423902,0.625206,0.143128,1016.549011
376308,-0.048152,-0.022885,-0.010997,-0.10631898,-0.983041327,-0.053878469,0.424898,0.62519,0.143128,1016.549011
376408,-0.020382,-0.014806,0.001144,-0.113809592,-0.986788163,-0.055209388,0.422901,0.627689,0.143755,1016.549011
376508,-0.00189,-0.002863,0.011576,-0.125850204,-0.983898265,-0.046500306,0.424384,0.626645,0.144204,1016.549011
376608,-0.002675,0.00424,0.014966,-0.132591122,-0.984495918,-0.034722347,0.425857,0.625078,0.145128,1016.549011
376708,-0.015258,0.006351,0.017906,-0.138779082,-0.988512449,-0.030372347,0.421866,0.62711,0.145728,1016.549011
376808,-0.032052,0.000578,0.01926,-0.143649898,-0.988892143,-0.031689796,0.424337,0.626524,0.146703,1016.549011
376908,-0.045329,0.005793,0.016327,-0.135415612,-0.987431735,-0.034836122,0.425334,0.627007,0.146729,1016.549011
377008,-0.056893,0.010212,0.013592,-0.131362449,-0.989244796,-0.044165,0.423331,0.626018,0.147177,1016.550781
377108,-0.061161,0.025045,0.018919,-0.120875,-0.98882551,-0.04941898,0.424326,0.625504,0.147152,1016.550781
377208,-0.042816,0.044139,0.014942,-0.125501837,-0.982174796,-0.060014082,0.420736,0.624297,0.152598,1016.550781
377308,-0.018366,0.060044,0.00993,-0.118643673,-0.980666429,-0.065004082,0.423276,0.626371,0.150202,1016.550781
377408,0.008744,0.063203,0.002553,-0.115482653,-0.983992347,-0.061167959,0.42179,0.625921,0.149676,1016.550781
377508,0.023443,0.062646,-0.008577,-0.12309449,-0.980736837,-0.050176429,0.421254,0.625334,0.151649,1016.550781
377608,0.030525,0.05365,-0.015317,-0.134261735,-0.984793367,-0.043713367,0.422758,0.625335,0.15115,1016.550781
377708,0.037181,0.031583,-0.020791,-0.154287857,-0.988195102,-0.034635204,0.423274,0.625375,0.150151,1016.550781
377808,0.03032,0.008238,-0.026314,-0.162976327,-0.98555,-0.022800816,0.419686,0.625664,0.155673,1016.550781
377908,-0.000665,-0.008592,-0.029135,-0.139246939,-0.987708061,-0.025463061,0.420758,0.626837,0.151726,1016.550781
378008,-0.027261,-0.014153,-0.017942,-0.114863469,-0.994374796,-0.029506429,0.422261,0.626339,0.151201,1016.550781
378108,-0.039449,-0.015379,0.000885,-0.112708469,-0.988722653,-0.042607857,0.422259,0.624844,0.151125,1016.550781
378208,-0.037604,-0.019303,0.01898,-0.108391122,-0.986831531,-0.05192898,0.420735,0.623799,0.152573,1016.550781
378308,-0.020934,-0.01425,0.028529,-0.104375612,-0.983783776,-0.061302857,0.422217,0.627215,0.153751,1016.550781
378408,0.011804,-0.005682,0.039013,-0.101265,-0.980703776,-0.065005612,0.420231,0.625776,0.153174,1016.550781
378508,0.054049,0.001811,0.043757,-0.10385398,-0.978896224,-0.059078878,0.420732,0.627263,0.15325,1016.550781
378608,0.077646,0.004299,0.047336,-0.11110102,-0.974229796,-0.041846122,0.419721,0.624763,0.153623,1016.549011
378708,0.066557,-0.005986,0.048844,-0.124299082,-0.974019388,-0.028219694,0.421224,0.624265,0.153098,1016.549011
378808,0.036539,-0.014708,0.049183,-0.118702755,-0.981826429,-0.025766122,0.421756,0.627319,0.151751,1016.549011
378908,0.018404,-0.032479,0.04966,-0.117134082,-0.992540918,-0.032776224,0.421669,0.625608,0.156173,1016.549011
379008,0.016494,-0.05281,0.052257,-0.122461327,-0.992359184,-0.035733163,0.421257,0.621871,0.150972,1016.549011
379108,0.005756,-0.072089,0.04917,-0.130528673,-0.986925204,-0.035422857,0.42266,0.622603,0.156021,1016.549011
379208,-0.005817,-0.089511,0.048487,-0.125373469,-0.989958061,-0.031700102,0.42228,0.621429,0.149447,1016.549011
379308,-0.017976,-0.102701,0.045505,-0.116847551,-0.987100816,-0.037489694,0.421201,0.621726,0.153971,1016.549011
379408,-0.010421,-0.111765,0.042373,-0.105159898,-0.988181633,-0.041604184,0.421758,0.623358,0.151048,1016.549011
379508,-0.006055,-0.117783,0.046528,-0.096720918,-0.990202041,-0.048044898,0.422225,0.621783,0.152472,1016.549011
379608,0.006686,-0.116064,0.054313,-0.095642857,-0.986418061,-0.051747041,0.422715,0.622249,0.152997,1016.549011
379708,0.02668,-0.113151,0.060143,-0.093917653,-0.98716551,-0.051708469,0.422722,0.620778,0.152421,1016.549011
379808,0.042645,-0.106849,0.069191,-0.10021602,-0.984016939,-0.049045,0.424207,0.62073,0.152921,1016.549011
379908,0.044521,-0.101775,0.067837,-0.108695102,-0.992109898,-0.043662959,0.421763,0.621389,0.150447,1016.549011
380008,0.040387,-0.110386,0.062841,-0.125742245,-0.996212959,-0.040179184,0.426228,0.621269,0.151448,1016.549011
380108,0.027766,-0.119711,0.046483,-0.143052143,-0.99674898,-0.037122041,0.423264,0.619396,0.149846,1016.549011
380208,0.022872,-0.130355,0.023947,-0.151356735,-0.991272857,-0.03776898,0.422806,0.620995,0.147923,1016.549011
380308,0.008299,-0.129595,0.001084,-0.145236122,-0.979562347,-0.037141837,0.425832,0.621044,0.145924,1016.550781
380408,-0.00022,-0.117874,-0.012038,-0.132398776,-0.976099082,-0.042587755,0.425277,0.620409,0.148898,1016.550781
380508,0.009689,-0.088441,-0.01216,-0.111795918,-0.971088469,-0.045767449,0.423351,0.621606,0.145449,1016.550781
380608,0.025068,-0.048013,-0.007098,-0.097261735,-0.955464694,-0.038565816,0.423311,0.620015,0.147372,1016.550781
380708,0.046922,0.004862,0.004893,-0.081249592,-0.954401224,-0.037319286,0.42228,0.621429,0.149447,1016.550781
380808,0.070017,0.045865,0.018433,-0.07797449,-0.955253776,-0.030641939,0.423403,0.619757,0.142349,1016.550781
380908,0.092667,0.06188,0.028312,-0.08849,-0.965721735,-0.020068061,0.422326,0.621051,0.146923,1016.550781
381008,0.087301,0.051167,0.032099,-0.11258398,-0.973365612,0.005095714,0.422795,0.620473,0.148397,1016.550781
381108,0.055258,0.019594,0.025925,-0.13099602,-0.983237857,0.023586122,0.420821,0.620553,0.147397,1016.550781
381208,0.018625,-0.023738,0.011954,-0.126673571,-0.989125102,0.029306735,0.421345,0.619122,0.145821,1016.550781
381308,-0.014964,-0.043071,0.000711,-0.114469388,-0.986753776,0.030981122,0.420302,0.619017,0.14832,1016.550781
381408,-0.040932,-0.039415,-0.011548,-0.101483571,-0.980369796,0.02733051,0.419318,0.620552,0.147896,1016.550781
381508,-0.054157,-0.015157,-0.016819,-0.0957,-0.974892143,0.027698469,0.419806,0.620022,0.148371,1016.550781
381608,-0.049317,0.011552,-0.032616,-0.092049388,-0.95946051,0.019034082,0.418356,0.61917,0.14582,1016.550781
381708,-0.022281,0.041939,-0.047523,-0.079022959,-0.953462245,0.012896531,0.4198,0.621991,0.148972,1016.550781
381808,0.012211,0.074333,-0.039427,-0.05683898,-0.958213571,0.012117041,0.415804,0.621033,0.14942,1016.550781
381908,0.043557,0.103479,-0.012392,-0.048670204,-0.969727041,0.026792143,0.416282,0.619981,0.150369,1016.545044
382008,0.053169,0.124651,0.024104,-0.060112857,-0.98166,0.052833776,0.416263,0.619933,0.151368,1016.545044
382108,0.041422,0.130137,0.061004,-0.084212041,-0.994345,0.069191122,0.416761,0.619925,0.151369,1016.545044
382208,0.025376,0.104077,0.089379,-0.100640816,-1.017965306,0.072983776,0.414251,0.619418,0.152342,1016.545044
382308,0.006562,0.072503,0.116011,-0.084029184,-1.03684551,0.07228898,0.417205,0.620769,0.154418,1016.545044
382408,-0.05103,0.014361,0.144248,-0.077445612,-1.054122653,0.071377551,0.417689,0.617748,0.154766,1016.545044
382508,-0.106933,-0.054061,0.157263,-0.070772857,-1.064183469,0.061393776,0.420163,0.619154,0.155843,1016.545044
382608,-0.139697,-0.136586,0.15543,-0.063292449,-1.069141735,0.046502959,0.417169,0.616213,0.155689,1016.545044
382708,-0.157464,-0.239714,0.135727,-0.062389898,-1.069244286,0.030746224,0.418156,0.616173,0.156189,1016.545044
382808,-0.160196,-0.353735,0.108422,-0.050947449,-1.070434184,0.011500306,0.420194,0.615265,0.15364,1016.545044
382908,-0.149429,-0.467139,0.081111,-0.050881735,-1.067029898,-0.009956735,0.42261,0.615531,0.157665,1016.545044
383008,-0.139211,-0.561149,0.05423,-0.057145204,-1.048917245,-0.015469082,0.424227,0.616319,0.151193,1016.545044
383108,-0.142126,-0.617494,0.02388,-0.06622398,-1.024511327,-0.014964082,0.423707,0.614285,0.152091,1016.545044
383208,-0.145986,-0.642279,-0.000661,-0.06844398,-1.006704694,-0.022452755,0.425831,0.615588,0.145145,1016.545044
383308,-0.159498,-0.630635,-0.019083,-0.068749184,-0.984266939,-0.022101224,0.426283,0.615957,0.14767,1016.545044
383408,-0.179398,-0.581044,-0.030362,-0.072076327,-0.964968061,-0.022909796,0.428284,0.615452,0.147145,1016.545044
383508,-0.193028,-0.489266,-0.028506,-0.04946602,-0.944027959,-0.028782959,0.426835,0.614599,0.144595,1016.545044
383608,-0.185485,-0.355359,-0.016525,-0.034525204,-0.923554898,-0.03466949,0.430391,0.617204,0.141224,1016.545044
383708,-0.148558,-0.208902,-0.001863,-0.017536122,-0.907225918,-0.040701429,0.428851,0.617605,0.143748,1016.545044
383808,-0.093151,-0.063818,0.024224,0.00754,-0.901393878,-0.041136531,0.428323,0.616046,0.145171,1016.545044
383908,-0.036283,0.066381,0.063162,0.037313776,-0.904583878,-0.034581837,0.42975,0.614857,0.148619,1016.545044
384008,0.018697,0.16689,0.111654,0.046987041,-0.911481327,-0.027717347,0.430698,0.613725,0.151068,1016.545044
384108,0.066552,0.222543,0.156769,0.043964796,-0.923041122,-0.021117551,0.426253,0.61439,0.149093,1016.545044
384208,0.089347,0.231651,0.195403,0.030403163,-0.940544286,-5.91E-05,0.428261,0.612414,0.147992,1016.545044
384308,0.070291,0.201144,0.222457,0.001997041,-0.961765612,0.021811224,0.429145,0.612109,0.15399,1016.545044
384408,0.018505,0.147153,0.234568,-0.019446735,-0.981602551,0.028815,0.42911,0.613508,0.156066,1016.545044
384508,-0.035284,0.106419,0.234391,-0.033662143,-0.990016224,0.011861939,0.429063,0.607931,0.157786,1016.545044
384608,-0.073083,0.097095,0.228047,-0.044744184,-0.997886429,-0.007590918,0.433427,0.608543,0.164335,1016.545044
384708,-0.068361,0.11555,0.204072,-0.071762857,-1.006113163,-0.024236531,0.429988,0.609217,0.16186,1016.545044
384808,-0.034071,0.126254,0.157627,-0.073225102,-1.005874694,-0.020504694,0.430404,0.605031,0.165656,1016.545044
384908,-0.020314,0.135794,0.106377,-0.052749388,-1.012912347,-0.005518061,0.43041,0.60802,0.165808,1016.545044
385008,-0.027512,0.112294,0.068974,-0.042740918,-1.011993163,0.004664286,0.431825,0.605313,0.16968,1016.545044
385108,-0.046973,0.078295,0.036328,-0.033233367,-1.00567949,0.010598878,0.428266,0.60667,0.173753,1016.546753
385208,-0.066951,0.032482,0.011484,-0.013378265,-1.005651633,0.015571939,0.429295,0.603761,0.171602,1016.546753
385308,-0.100398,-0.004991,-0.000352,0.00347,-0.998868265,0.007467857,0.428742,0.604621,0.174652,1016.546753
385408,-0.13057,-0.028868,-0.004104,0.011237347,-0.989752959,-0.009979592,0.426822,0.603351,0.170576,1016.546753
385508,-0.152094,-0.024116,-0.003426,0.012756735,-0.977981122,-0.02704551,0.428741,0.603625,0.174601,1016.546753
385608,-0.152403,0.002484,-0.003977,-0.000166939,-0.973000816,-0.035567551,0.427155,0.604404,0.179649,1016.546753
385708,-0.143494,0.042561,-0.012863,-0.008216939,-0.968341327,-0.033422551,0.425594,0.603262,0.183097,1016.546753
385808,-0.147017,0.093758,-0.013278,-0.009325204,-0.967161327,-0.025459184,0.425627,0.601366,0.180996,1016.546753
385908,-0.158008,0.145938,-0.011633,-0.007493673,-0.966287653,-0.016166939,0.426099,0.602282,0.182546,1016.546753
386008,-0.175141,0.194284,-0.005263,0.000759082,-0.971134796,-0.006173367,0.422539,0.602643,0.186569,1016.546753
386108,-0.198401,0.252543,0.007885,0.004381735,-0.972270714,-0.008997041,0.423467,0.600964,0.189992,1016.546753
386208,-0.189944,0.296946,0.009379,0.012278469,-0.967361122,-0.011817857,0.421398,0.599308,0.193913,1016.546753
386308,-0.172292,0.323294,0.003109,0.029727959,-0.962530612,-0.01083551,0.416321,0.597652,0.198833,1016.546753
386408,-0.165155,0.337978,-0.007428,0.051013776,-0.970464694,-0.009831122,0.418732,0.599887,0.20346,1016.546753
386508,-0.146216,0.349597,-0.011005,0.059558673,-0.983865714,-0.012017347,0.416664,0.599227,0.207432,1016.546753
386608,-0.126222,0.352266,-0.017215,0.061468163,-1.000875612,-0.009430204,0.413139,0.598688,0.209405,1016.546753
386708,-0.12902,0.378475,-0.031746,0.047892245,-1.00463551,0.015819694,0.411052,0.597981,0.214377,1016.548523
386808,-0.141781,0.298596,-0.050667,0.020462347,-1.067642755,0.013815204,0.409996,0.595361,0.217248,1016.548523
386908,-0.143165,0.209495,-0.08685,-0.009187653,-1.070329694,0.026875,0.408895,0.594115,0.222695,1016.548523
387008,-0.180145,0.134709,-0.126448,-0.015976633,-1.072572041,0.032850918,0.404887,0.596597,0.22432,1016.548523
387108,-0.207985,0.084198,-0.176266,-0.029610204,-1.075542041,0.017407041,0.403874,0.597562,0.22537,1016.548523
387208,-0.206633,0.048446,-0.2346,-0.028741327,-1.078790714,0.017090612,0.401334,0.595986,0.227793,1016.548523
387308,-0.210846,0.051873,-0.278696,-0.015784898,-1.069533776,0.018814388,0.401731,0.596211,0.233316,1016.548523
387408,-0.225404,0.074333,-0.312207,0.007886122,-1.060338061,0.00969449,0.397153,0.595045,0.238261,1016.548523
387508,-0.209025,0.112181,-0.339127,0.037561327,-1.063053265,-0.018438673,0.395706,0.600646,0.236541,1016.548523
387608,-0.160564,0.144087,-0.346152,0.057099796,-1.068025714,-0.046261531,0.393574,0.600316,0.244038,1016.548523
387708,-0.075371,0.161821,-0.348126,0.068089592,-1.082109082,-0.067512449,0.388531,0.602718,0.247662,1016.548523
387808,0.007203,0.178551,-0.332606,0.052116939,-1.116089694,-0.051100204,0.385019,0.604195,0.249237,1016.548523
387908,0.065681,0.19929,-0.308711,0.018391531,-1.16524551,-0.021953776,0.381017,0.604709,0.25026,1016.548523
388008,0.070538,0.225806,-0.253869,-0.037346837,-1.216772857,0.012525102,0.377975,0.606106,0.253335,1016.548523
388108,0.008837,0.304095,-0.175826,-0.104085204,-1.24541949,0.05055,0.374977,0.60613,0.253833,1016.548523
388208,-0.079119,0.468051,-0.099786,-0.163828673,-1.260872959,0.055035306,0.372369,0.608347,0.260457,1016.548523
388308,-0.155338,0.688553,-0.034415,-0.189729694,-1.269526531,0.050750204,0.367287,0.60866,0.265979,1016.548523
388408,-0.269166,0.914032,0.014482,-0.212926939,-1.264486327,0.029480102,0.362693,0.60894,0.272,1016.548523
388508,-0.340314,1.085865,0.02659,-0.228811224,-1.265956327,-0.023422857,0.356566,0.60865,0.279995,1016.548523
388608,-0.351027,1.137169,0.012641,-0.23603898,-1.255911429,-0.074142245,0.352406,0.609252,0.289541,1016.548523
388708,-0.308893,1.033043,-0.018045,-0.240470102,-1.22367449,-0.138836531,0.346341,0.606639,0.293911,1016.548523
388808,-0.192156,0.754418,-0.084209,-0.240617959,-1.187778061,-0.180746531,0.346217,0.610287,0.301111,1016.548523
388908,-0.036266,0.360395,-0.169297,-0.216801429,-1.149301633,-0.177890408,0.34028,0.611973,0.299186,1016.548523
389008,0.06034,-0.027047,-0.254863,-0.174132755,-1.075027857,-0.118242143,0.337729,0.614833,0.302837,1016.548523
389108,0.018215,-0.331844,-0.337966,-0.133036327,-1.012119592,-0.054632857,0.335313,0.615066,0.298837,1016.548523
389208,-0.091158,-0.522543,-0.377162,-0.116951224,-0.970544898,-0.069514286,0.335341,0.620096,0.298092,1016.548523
389308,-0.184712,-0.604329,-0.373558,-0.127063061,-0.947936224,-0.142779694,0.333342,0.622097,0.298692,1016.548523
389408,-0.223361,-0.588154,-0.344179,-0.168835816,-0.906494694,-0.219580612,0.333868,0.622161,0.297193,1016.548523
389508,-0.194831,-0.496075,-0.303777,-0.216527245,-0.87927398,-0.289476327,0.33187,0.624161,0.297794,1016.548523
389608,-0.108858,-0.352867,-0.270554,-0.255187551,-0.833789796,-0.336902959,0.326883,0.626209,0.298394,1016.548523
389708,0.026345,-0.171078,-0.255723,-0.265776837,-0.78893449,-0.366403571,0.325406,0.625285,0.297343,1016.548523
389808,0.181983,0.019761,-0.24058,-0.250353469,-0.765630816,-0.366265102,0.319371,0.624238,0.300289,1016.548523
389908,0.27448,0.191305,-0.189627,-0.210491531,-0.767851122,-0.33991949,0.318919,0.629325,0.298544,1016.548523
390008,0.302955,0.352079,-0.104804,-0.172123163,-0.778276327,-0.31641102,0.315858,0.630675,0.302618,1016.544495
390108,0.334505,0.520411,-0.000966,-0.144015102,-0.827022551,-0.311021429,0.312882,0.632739,0.302218,1016.544495
390208,0.400723,0.657655,0.113379,-0.119123163,-0.871811939,-0.271354694,0.309402,0.631324,0.301641,1016.544495
390308,0.423583,0.78066,0.214972,-0.100271224,-0.90435102,-0.206402653,0.306813,0.63359,0.307266,1016.544495
390408,0.386821,0.88951,0.290094,-0.09519602,-0.933203571,-0.15429551,0.302263,0.631997,0.310687,1016.544495
390508,0.330005,0.937134,0.347115,-0.092182041,-0.974847959,-0.126027857,0.298767,0.632527,0.311211,1016.544495
390608,0.280603,0.915392,0.375323,-0.109715816,-1.006226837,-0.100734388,0.294729,0.63394,0.314284,1016.544495
390708,0.191226,0.807766,0.356907,-0.14646898,-1.016474388,-0.06874949,0.289709,0.632926,0.316231,1016.544495
390808,0.058605,0.646075,0.294049,-0.190044184,-1.013570918,-0.046545918,0.288625,0.630733,0.320628,1016.544495
390908,-0.058163,0.471857,0.193637,-0.221351531,-1.004569388,-0.045777449,0.283153,0.629349,0.32005,1016.544495
391008,-0.14438,0.294013,0.079808,-0.22294949,-0.976494082,-0.066661429,0.286068,0.630105,0.3241,1016.544495
391108,-0.191968,0.155414,-0.02152,-0.184404694,-0.944312347,-0.08584102,0.28101,0.627999,0.327995,1016.544495
391208,-0.194718,0.07398,-0.091874,-0.131991837,-0.905191122,-0.110178265,0.279527,0.629541,0.327571,1016.544495
391308,-0.169212,0.035518,-0.136643,-0.095095612,-0.877441837,-0.114305,0.278974,0.629903,0.330595,1016.544495
391408,-0.121899,0.029708,-0.151134,-0.058640918,-0.852193571,-0.117859898,0.275484,0.627965,0.330492,1016.544495
391508,-0.056371,0.037122,-0.139309,-0.040538367,-0.835827245,-0.121401837,0.273518,0.627571,0.328967,1016.544495
391608,0.023494,0.042197,-0.106704,-0.022211429,-0.831177143,-0.131640102,0.272463,0.630906,0.332644,1016.546204
391708,0.088061,0.04099,-0.05549,-0.013106429,-0.835479796,-0.135647857,0.269994,0.632488,0.331719,1016.546204
391808,0.126618,0.029302,0.007573,-0.026258469,-0.840787143,-0.116140408,0.271506,0.632014,0.330695,1016.546204
391908,0.116319,-0.000793,0.063997,-0.048532041,-0.84992051,-0.092654796,0.267495,0.633002,0.332244,1016.546204
392008,0.089809,-0.040871,0.113059,-0.059544898,-0.866143163,-0.085408367,0.269075,0.629233,0.327043,1016.546204
392108,0.056735,-0.073284,0.152682,-0.063818367,-0.876914388,-0.088423367,0.270085,0.631733,0.32667,1016.546204
392208,0.053363,-0.094315,0.183721,-0.063500102,-0.878579796,-0.109286837,0.271103,0.63326,0.325747,1016.546204
392308,0.061349,-0.117313,0.200428,-0.070498878,-0.876895918,-0.116040714,0.269087,0.630752,0.326619,1016.546204
392408,0.080083,-0.139866,0.197229,-0.072143776,-0.875127143,-0.12018102,0.270111,0.630809,0.32512,1016.546204
392508,0.096619,-0.157949,0.182818,-0.063124592,-0.869097449,-0.116186735,0.271596,0.630761,0.32562,1016.546204
392608,0.122704,-0.165365,0.175364,-0.036712347,-0.87660898,-0.118431122,0.271624,0.630833,0.324121,1016.546204
392708,0.155161,-0.172034,0.175989,-0.017508163,-0.884940816,-0.121910612,0.273121,0.632304,0.324198,1016.546204
392808,0.172559,-0.185453,0.189333,0.00035898,-0.904333878,-0.119709082,0.274686,0.629982,0.320073,1016.546204
392908,0.162489,-0.215187,0.204434,-0.013541531,-0.909592755,-0.123847143,0.277191,0.632956,0.319726,1016.546204
393008,0.145355,-0.266624,0.20379,-0.029476327,-0.925574898,-0.123332347,0.27918,0.630931,0.319625,1016.546204
393108,0.103665,-0.321117,0.192199,-0.03651102,-0.941812449,-0.120137959,0.279275,0.632667,0.314703,1016.546204
393208,0.046193,-0.372212,0.179235,-0.036109898,-0.962501327,-0.116330102,0.281803,0.632723,0.312705,1016.547974
393308,0.001791,-0.400206,0.179146,-0.028242653,-0.983358776,-0.12104,0.284329,0.631784,0.310656,1016.547974
393408,-0.018347,-0.406789,0.187157,-0.023579286,-1.004855102,-0.127464184,0.285774,0.629647,0.313053,1016.547974
393508,-0.016078,-0.393835,0.182215,-0.026334388,-1.009824592,-0.131440816,0.285835,0.627822,0.309453,1016.547974
393608,-0.015018,-0.356576,0.155209,-0.036899388,-1.001924592,-0.139291531,0.289362,0.629358,0.307531,1016.547974
393708,0.006756,-0.317143,0.1045,-0.055889286,-0.996832041,-0.146024184,0.288914,0.626521,0.30438,1016.547974
393808,0.054349,-0.265676,0.043803,-0.054568571,-0.999394184,-0.151333061,0.290856,0.629334,0.307532,1016.547974
393908,0.10418,-0.208171,-0.017859,-0.056840204,-0.994090408,-0.142657959,0.289967,0.62665,0.301381,1016.547974
394008,0.123671,-0.152404,-0.076035,-0.049680918,-1.001797653,-0.123186429,0.292474,0.625662,0.300332,1016.547974
394108,0.101647,-0.091234,-0.112542,-0.035913163,-1.025083673,-0.112482041,0.290517,0.629752,0.299035,1016.547974
394208,0.041761,-0.050775,-0.148224,-0.047837653,-1.033646531,-0.104075816,0.290547,0.631319,0.297612,1016.547974
394308,0.013957,-0.000247,-0.173154,-0.042491735,-1.061289184,-0.125619286,0.292075,0.629398,0.295511,1016.547974
394408,0.10427,0.036855,-0.203703,-0.041798878,-1.061516531,-0.171601224,0.287098,0.631968,0.295637,1016.547974
394508,0.118494,0.042545,-0.236604,-0.003037143,-1.04421949,-0.135024082,0.287108,0.631993,0.295137,1016.547974
394608,0.146067,0.012449,-0.275295,-0.013776224,-1.070257959,-0.113261837,0.283663,0.634635,0.293264,1016.547974
394708,0.151256,-0.063587,-0.321354,0.005071224,-1.069583367,-0.08657398,0.283707,0.633759,0.290714,1016.547974
394808,0.140086,-0.128897,-0.349862,0.027954898,-1.077265,-0.083363061,0.281224,0.632826,0.290163,1016.547974
394908,0.136962,-0.218893,-0.370876,0.043624592,-1.099258776,-0.081473163,0.279832,0.638073,0.285418,1016.547974
395008,0.104129,-0.339969,-0.366189,0.061089796,-1.141665918,-0.0645,0.279301,0.635019,0.286765,1016.547974
395108,0.035812,-0.446008,-0.331656,0.069187245,-1.182953367,-0.062435204,0.280867,0.63915,0.28347,1016.547974
395208,-0.005937,-0.518609,-0.298384,0.037083673,-1.234726735,-0.073043469,0.278942,0.640347,0.280021,1016.547974
395308,-0.064941,-0.587933,-0.280446,-0.020970918,-1.276624898,-0.054625204,0.279507,0.641504,0.276574,1016.547974
395408,-0.186942,-0.66359,-0.266596,-0.064395714,-1.305403673,-0.037555102,0.279454,0.642854,0.279649,1016.547974
395508,-0.366624,-0.687341,-0.215743,-0.104992653,-1.334922551,-0.058744898,0.281053,0.639632,0.273474,1016.547974
395608,-0.496455,-0.630044,-0.14286,-0.181819388,-1.358567245,-0.1073,0.281522,0.638556,0.274923,1016.547974
395708,-0.559727,-0.462074,-0.072085,-0.298331633,-1.337556327,-0.157566735,0.282503,0.640484,0.276024,1016.547974
395808,-0.558466,-0.202589,-0.024984,-0.429876531,-1.307053878,-0.228710714,0.282433,0.637326,0.27937,1016.547974
395908,-0.458341,0.08606,-0.057668,-0.542788367,-1.241934592,-0.271024082,0.283916,0.636282,0.27982,1016.547974
396008,-0.320177,0.383551,-0.130895,-0.597127959,-1.15998551,-0.286316327,0.281385,0.634731,0.281742,1016.547974
396108,-0.154501,0.669665,-0.238281,-0.606967245,-1.069848673,-0.269349694,0.277929,0.636353,0.280318,1016.547974
396208,0.031402,0.933897,-0.370653,-0.589036633,-0.981689082,-0.216293367,0.270885,0.638264,0.284415,1016.547974
396308,0.199375,1.15814,-0.512293,-0.518918673,-0.899172041,-0.115181224,0.263932,0.644876,0.284244,1016.547974
396408,0.289072,1.371927,-0.620527,-0.385781633,-0.825466939,-0.005557041,0.254409,0.643386,0.287164,1016.547974
396508,0.327856,1.550204,-0.68058,-0.197069694,-0.760142347,0.062296224,0.242899,0.650375,0.291014,1016.545593
396608,0.352227,1.662807,-0.645387,0.033211633,-0.746263469,0.119496122,0.232412,0.650967,0.292536,1016.545593
396708,0.307975,1.615869,-0.523136,0.175095306,-0.693131224,0.109127857,0.225381,0.655393,0.296261,1016.545593
396808,0.211883,1.313254,-0.377758,0.221496939,-0.664737347,0.075206633,0.214871,0.653944,0.298681,1016.545593
396908,0.181268,0.842951,-0.231332,0.197671122,-0.700627959,0.044911633,0.210366,0.65743,0.300356,1016.545593
397008,0.130012,0.323551,-0.066422,0.134523061,-0.767139082,0.054404184,0.205829,0.658353,0.303405,1016.545593
397108,0.046811,-0.100525,0.078646,0.058452857,-0.841614592,0.04890949,0.20837,0.660427,0.301008,1016.545593
397208,-0.055581,-0.401914,0.199484,0.004000612,-0.934962347,0.036733878,0.208325,0.656345,0.302804,1016.545593
397308,-0.165556,-0.554957,0.31806,-0.060463163,-0.994527041,0.009867347,0.210336,0.656362,0.301805,1016.545593
397408,-0.268596,-0.579465,0.41635,-0.139566327,-1.047917959,-0.028352755,0.21629,0.653229,0.302654,1016.545593
397508,-0.258439,-0.52908,0.457443,-0.253597551,-1.081273061,-0.097242653,0.216831,0.651349,0.300054,1016.545593
397608,-0.189144,-0.527911,0.421723,-0.348404286,-1.080927041,-0.157976939,0.218257,0.649163,0.303451,1016.545593
397708,-0.136527,-0.537287,0.329898,-0.403949082,-1.044541122,-0.148630204,0.224744,0.650081,0.303004,1016.545593
397808,-0.123168,-0.51486,0.205981,-0.396405408,-0.991487653,-0.121947551,0.229755,0.646113,0.300803,1016.545593
397908,-0.111372,-0.429849,0.088673,-0.314365306,-0.944361735,-0.109858878,0.229777,0.648154,0.299905,1016.545593
398008,-0.063759,-0.292762,0.017449,-0.192918061,-0.911039388,-0.101738776,0.227278,0.643709,0.299676,1016.545593
398108,-0.000116,-0.144202,0.001035,-0.089035,-0.879478776,-0.072436224,0.229788,0.649174,0.299456,1016.543884
398208,0.026432,0.018422,0.023272,0.00264102,-0.852076429,-0.034735204,0.230259,0.649592,0.300981,1016.543884
398308,0.057998,0.152383,0.080155,0.047974082,-0.832866327,-0.028760816,0.228301,0.648226,0.298905,1016.543884
398408,0.05609,0.212566,0.161937,0.084400918,-0.827009082,-0.028474286,0.226818,0.64927,0.298455,1016.543884
398508,0.060675,0.198202,0.247408,0.095778776,-0.838418776,-0.028861224,0.227303,0.647245,0.298854,1016.543884
398608,0.066192,0.148052,0.351481,0.088120408,-0.864438673,-0.020400714,0.225854,0.646891,0.296329,1016.543884
398708,0.051432,0.079599,0.432948,0.035850612,-0.88312102,-0.012707551,0.229766,0.647133,0.300354,1016.543884
398808,0.041891,0.023536,0.474638,0.000532041,-0.905227245,-0.009163265,0.230719,0.643533,0.302176,1016.543884
398908,0.0382,-0.029152,0.476176,-0.062535,-0.926186837,0.012679082,0.233223,0.641051,0.30105,1016.543884
399008,-0.000764,-0.063351,0.455143,-0.078854694,-0.946888776,0.027101531,0.234747,0.641598,0.299577,1016.543884
399108,-0.090411,-0.099738,0.41804,-0.096237857,-0.950065918,0.024457755,0.236175,0.640907,0.30305,1016.543884
399208,-0.159245,-0.117581,0.374862,-0.098772857,-0.953074286,0.001950204,0.23865,0.637356,0.303373,1016.543884
399308,-0.163957,-0.125062,0.326244,-0.07987551,-0.931575714,-0.023760816,0.241612,0.637735,0.304899,1016.543884
399408,-0.126217,-0.090374,0.286985,-0.061984184,-0.917468367,-0.040337551,0.241082,0.635678,0.306296,1016.543884
399508,-0.089037,-0.069935,0.253391,-0.045428776,-0.898655918,-0.025435408,0.246061,0.634104,0.306221,1016.543884
399608,-0.068807,-0.040751,0.235346,-0.027486531,-0.899013776,-0.018392041,0.246068,0.633131,0.305671,1016.543884
399708,-0.06978,-0.03223,0.234658,-0.008608673,-0.903363367,-0.009462041,0.243576,0.632174,0.305619,1016.545593
399808,-0.078735,-0.010823,0.252639,0.002903571,-0.905259592,-0.021117245,0.248489,0.630432,0.309043,1016.545593
399908,-0.065638,0.010333,0.278943,-0.003794694,-0.920390612,-0.041337551,0.249494,0.629942,0.308519,1016.545593
400008,-0.061279,0.012008,0.29642,-0.024495714,-0.93602051,-0.040728163,0.248975,0.628407,0.309442,1016.545593
400108,-0.087984,0.030094,0.314588,-0.041011939,-0.97071449,-0.037236531,0.251427,0.627773,0.311417,1016.545593
400208,-0.123146,0.064062,0.33716,-0.092060714,-1.009191939,-0.029698163,0.25341,0.627717,0.311917,1016.545593
400308,-0.142596,0.124048,0.345289,-0.130245612,-1.033337041,-0.031052857,0.251912,0.625748,0.311815,1016.545593
400408,-0.158976,0.201075,0.334112,-0.174228265,-1.050924694,-0.032623673,0.254344,0.623571,0.314713,1016.545593
400508,-0.183769,0.279843,0.291045,-0.214153163,-1.035620204,-0.044692143,0.255805,0.620984,0.316086,1016.545593
400608,-0.159693,0.377534,0.23475,-0.23014449,-1.056563469,-0.075732755,0.255282,0.622415,0.317661,1016.545593
400708,-0.090763,0.46173,0.156071,-0.227823163,-1.064509388,-0.080921531,0.254697,0.620213,0.322057,1016.545593
400808,-0.086859,0.527038,0.079963,-0.187506837,-1.092052143,-0.050574184,0.254713,0.618766,0.320982,1016.545593
400908,-0.037755,0.583247,0.021646,-0.108691122,-1.131287245,-0.068942857,0.252623,0.616066,0.325852,1016.545593
401008,0.023482,0.566933,-0.023507,-0.039679694,-1.178070306,-0.045760204,0.250165,0.619167,0.324504,1016.545593
401108,0.028488,0.491329,-0.05582,-0.00523449,-1.205339694,-0.006222449,0.247117,0.622036,0.328154,1016.545593
401208,0.001434,0.335848,-0.08702,-0.017353061,-1.208609898,-0.00331449,0.244089,0.62099,0.330102,1016.545593
401308,-0.048541,0.08157,-0.159761,-0.06546551,-1.185064388,-0.009763163,0.246153,0.624614,0.326782,1016.545593
401408,-0.120166,-0.235608,-0.295754,-0.12334898,-1.151276224,0.00156551,0.242618,0.623553,0.329229,1016.545593
401508,-0.229456,-0.533875,-0.457478,-0.14120949,-1.106135204,0.008258367,0.245721,0.625787,0.323334,1016.545593
401608,-0.340173,-0.713311,-0.568762,-0.117988571,-1.092198878,-0.021901735,0.245125,0.627523,0.328933,1016.545593
401708,-0.40979,-0.801127,-0.590468,-0.090212857,-1.074807959,-0.087927245,0.245647,0.625595,0.327332,1016.545593
401808,-0.480555,-0.788543,-0.510897,-0.070967347,-1.076774796,-0.13482602,0.247163,0.627114,0.326409,1016.545593
401908,-0.538325,-0.608317,-0.365501,-0.050736735,-1.075734082,-0.173942245,0.244643,0.626583,0.327883,1016.545593
402008,-0.52564,-0.255965,-0.190666,-0.078528776,-1.101243571,-0.259056531,0.248139,0.626552,0.327384,1016.545593
402108,-0.349893,0.165038,-0.001843,-0.183704184,-1.131754286,-0.373966939,0.246088,0.624446,0.33028,1016.545593
402208,-0.059196,0.532897,0.136716,-0.341608265,-1.103093673,-0.453470816,0.245601,0.625972,0.329857,1016.545593
402308,0.196285,0.736005,0.164261,-0.498684796,-1.03137949,-0.469351735,0.243032,0.623328,0.333727,1016.545593
402408,0.345727,0.815695,0.132108,-0.57573551,-0.992429184,-0.398172959,0.242017,0.628254,0.33548,1016.545593
402508,0.39702,0.828617,0.032844,-0.573270408,-0.935010408,-0.317570408,0.237545,0.629346,0.33503,1016.545593
402608,0.416184,0.802773,-0.09391,-0.500207041,-0.901468571,-0.250024388,0.236083,0.631933,0.333657,1016.545593
402708,0.433319,0.731735,-0.216372,-0.372774898,-0.869737245,-0.176624592,0.230105,0.632028,0.333655,1016.545593
402808,0.412476,0.650686,-0.28999,-0.194981531,-0.849389592,-0.103695408,0.224169,0.63471,0.331781,1016.547302
402908,0.325068,0.513668,-0.304171,-0.026316837,-0.831114898,-0.036464694,0.218689,0.634299,0.331754,1016.547302
403008,0.201794,0.359607,-0.244395,0.091041735,-0.815956224,-0.034287449,0.216195,0.637802,0.332431,1016.547302
403108,0.117747,0.167191,-0.141529,0.142678163,-0.812138673,-0.082446224,0.214678,0.640244,0.334057,1016.547302
403208,0.077014,0.003007,0.006018,0.134525918,-0.839939184,-0.108386735,0.212685,0.640276,0.334056,1016.547302
403308,0.038446,-0.051412,0.14467,0.088054184,-0.877617143,-0.117148061,0.214111,0.638091,0.337454,1016.547302
403408,0.003796,-0.003544,0.286974,0.046373469,-0.951014388,-0.130112551,0.217138,0.638638,0.335481,1016.547302
403508,-0.003839,0.113499,0.439548,-0.005702755,-1.017402857,-0.163062551,0.214117,0.636122,0.336853,1016.547302
403608,0.044374,0.248018,0.556152,-0.097341224,-1.081406122,-0.192036531,0.218097,0.633567,0.336727,1016.547302
403708,0.12233,0.336074,0.611171,-0.236120714,-1.113769286,-0.216601633,0.219525,0.632877,0.3402,1016.547302
403808,0.140575,0.357216,0.576351,-0.368940408,-1.10361102,-0.20771602,0.221035,0.630909,0.3391,1016.547302
403908,0.097935,0.341507,0.450745,-0.464164184,-1.069253367,-0.180403061,0.219015,0.631366,0.340624,1016.547302
404008,0.010869,0.277402,0.262966,-0.503552041,-1.042444898,-0.152915918,0.219499,0.628843,0.340997,1016.547302
404108,-0.031892,0.215983,0.063362,-0.45357551,-0.996322347,-0.127712959,0.218487,0.630305,0.342072,1016.547302
404208,-0.1318,0.166926,-0.118013,-0.357465102,-0.929445306,-0.105528265,0.218969,0.631246,0.343123,1016.547302
404308,-0.202035,0.167293,-0.22544,-0.238118163,-0.897771735,-0.114413163,0.214936,0.63069,0.345595,1016.547302
404408,-0.164484,0.176842,-0.275524,-0.107994694,-0.875899694,-0.135940918,0.212516,0.628431,0.341469,1016.547302
404508,-0.109265,0.18769,-0.249979,0.00186602,-0.841201224,-0.127526531,0.211883,0.630569,0.349093,1016.549011
404608,-0.086006,0.188932,-0.167364,0.067848776,-0.808375408,-0.110502143,0.208463,0.631789,0.345644,1016.549011
404708,-0.08725,0.18351,-0.057564,0.089584592,-0.784140408,-0.112846633,0.205923,0.630214,0.348066,1016.549011
404808,-0.070509,0.148027,0.058392,0.079990714,-0.778473673,-0.135622959,0.204417,0.629217,0.348514,1016.549011
404908,-0.046611,0.091725,0.169965,0.039557857,-0.799219286,-0.148011122,0.203425,0.631226,0.348616,1016.549011
405008,-0.035331,0.036269,0.274673,-0.007838571,-0.817579184,-0.141708571,0.207414,0.628197,0.347965,1016.549011
405108,-0.054672,0.019071,0.352974,-0.053894796,-0.841749082,-0.15210602,0.205417,0.625738,0.347837,1016.549011
405208,-0.059951,0.017641,0.402621,-0.107341531,-0.864246837,-0.171088061,0.206863,0.624597,0.350286,1016.549011
405308,-0.069137,0.01995,0.430576,-0.158591122,-0.892559388,-0.176631837,0.209381,0.62463,0.348788,1016.549011
405408,-0.090128,0.019964,0.428517,-0.202666122,-0.908284592,-0.17018602,0.213334,0.622003,0.350161,1016.549011
405508,-0.095071,0.027867,0.393026,-0.18732,-0.925796735,-0.174441735,0.214821,0.617994,0.349958,1016.549011
405608,-0.082971,0.062361,0.341406,-0.15836602,-0.929456327,-0.19943949,0.216819,0.615993,0.349357,1016.549011
405708,-0.070308,0.078579,0.272811,-0.12354,-0.924412653,-0.198705918,0.215796,0.616435,0.350882,1016.549011
405808,-0.055369,0.092232,0.209185,-0.087098673,-0.922576633,-0.197893265,0.215337,0.617536,0.348933,1016.549011
405908,-0.018615,0.085369,0.156798,-0.05341949,-0.917638469,-0.187179082,0.217806,0.615953,0.349858,1016.549011
406008,0.006392,0.079078,0.1249,-0.027321429,-0.904820612,-0.173921531,0.217348,0.612096,0.347155,1016.549011
406108,0.035336,0.077849,0.105141,-0.028030918,-0.89543898,-0.180179796,0.218825,0.61302,0.348206,1016.550781
406208,0.058007,0.051996,0.08512,-0.039262857,-0.896916429,-0.158885306,0.216868,0.612152,0.346155,1016.550781
406308,0.04475,0.023489,0.070345,-0.047778367,-0.903390306,-0.133461429,0.219327,0.610047,0.347554,1016.550781
406408,0.01107,-0.002751,0.069276,-0.067215102,-0.923761939,-0.123162347,0.216378,0.611187,0.345605,1016.550781
406508,-0.012703,-0.029496,0.07425,-0.082020408,-0.95413551,-0.131627041,0.218904,0.610746,0.343581,1016.550781
406608,-0.015268,-0.067081,0.082196,-0.100082041,-0.974587857,-0.14521051,0.216891,0.609235,0.344503,1016.550781
406708,-0.009729,-0.120787,0.092414,-0.11028398,-0.988879592,-0.152013673,0.219877,0.607693,0.344428,1016.550781
406808,-0.018655,-0.188335,0.091929,-0.110763061,-1.000200816,-0.15764,0.218843,0.607114,0.346402,1016.550781
406908,-0.033761,-0.25224,0.080367,-0.105530204,-1.008751939,-0.168218878,0.223882,0.608674,0.343481,1016.550781
407008,-0.047527,-0.290471,0.056968,-0.096875408,-1.025759388,-0.183892755,0.221914,0.606785,0.341879,1016.550781
407108,-0.026769,-0.310445,0.038049,-0.09668398,-1.047152653,-0.199495306,0.225001,0.604511,0.336255,1016.550781
407208,0.015733,-0.300011,0.000689,-0.106015,-1.040772143,-0.216154694,0.22246,0.607396,0.339406,1016.550781
407308,0.102469,-0.278442,-0.054694,-0.129518469,-1.069763878,-0.216150408,0.225492,0.605476,0.336806,1016.550781
407408,0.135421,-0.26867,-0.139055,-0.161569184,-1.063719694,-0.168992755,0.224523,0.605564,0.335306,1016.550781
407508,0.110459,-0.288538,-0.237013,-0.141390612,-1.084447041,-0.146374592,0.227586,0.605709,0.331309,1016.550781
407608,0.085811,-0.324003,-0.313777,-0.105198673,-1.117469286,-0.131863673,0.225661,0.606906,0.32786,1016.550781
407708,0.083924,-0.334527,-0.342389,-0.077422449,-1.148452653,-0.159116224,0.223672,0.608931,0.327961,1016.550781
407808,0.088821,-0.342948,-0.360711,-0.070581531,-1.166132755,-0.156119286,0.225721,0.609542,0.324988,1016.550781
407908,0.063231,-0.341809,-0.366461,-0.074680714,-1.204236327,-0.139914898,0.224256,0.610634,0.323539,1016.550781
408008,0.020645,-0.33262,-0.3224,-0.055868265,-1.246032755,-0.153131939,0.224825,0.608328,0.319414,1016.550781
408108,-0.04095,-0.311358,-0.231639,-0.066472857,-1.284727857,-0.150861327,0.22339,0.610489,0.316516,1016.550781
408208,-0.143085,-0.253574,-0.118672,-0.115678163,-1.288199082,-0.158321735,0.226895,0.610482,0.315518,1016.550781
408308,-0.218538,-0.145106,-0.016876,-0.218986122,-1.271432143,-0.218161122,0.22796,0.612627,0.312121,1016.550781
408408,-0.203873,-0.004046,0.033746,-0.343345,-1.226917347,-0.275680204,0.226471,0.610184,0.311494,1016.550781
408508,-0.129914,0.121653,0.017077,-0.468994184,-1.167050714,-0.320655816,0.227961,0.607669,0.311367,1016.550781
408608,-0.011734,0.189485,-0.072892,-0.545534796,-1.099611939,-0.33599051,0.225988,0.608247,0.310393,1016.550781
408708,0.140439,0.241584,-0.201924,-0.564223061,-1.03667602,-0.294007857,0.225554,0.608423,0.306894,1016.550781
408808,0.232131,0.298984,-0.341463,-0.530985306,-0.955251327,-0.207702653,0.223087,0.611002,0.30602,1016.550781
408908,0.264521,0.362086,-0.47041,-0.482719388,-0.885579388,-0.13398551,0.219678,0.613243,0.302122,1016.550781
409008,0.279931,0.428802,-0.57969,-0.377752041,-0.831869592,-0.082036837,0.214723,0.617356,0.301324,1016.550781
409108,0.272464,0.509819,-0.632416,-0.211839286,-0.782461735,-0.021895204,0.210706,0.620811,0.3035,1016.550781
409208,0.250587,0.591488,-0.600618,-0.052319388,-0.740831122,0.016192041,0.202295,0.621089,0.300499,1016.550781
409308,0.174044,0.600089,-0.507338,0.067933673,-0.686100714,0.021547959,0.19731,0.624632,0.301175,1016.548523
409408,0.112006,0.504196,-0.382804,0.122726531,-0.670805204,-0.012932449,0.192276,0.626061,0.304248,1016.548523
409508,0.104447,0.294582,-0.270679,0.104345816,-0.65506449,-0.055889286,0.187782,0.625112,0.304696,1016.548523
409608,0.090422,0.077636,-0.159997,0.082139898,-0.68884398,-0.052516429,0.187271,0.623103,0.305094,1016.548523
409708,0.066629,-0.065413,-0.040777,0.052597041,-0.779211327,-0.027647653,0.189757,0.626029,0.305747,1016.548523
409808,0.058954,-0.115151,0.087859,0.033502959,-0.885553469,-0.015571837,0.185787,0.624147,0.304644,1016.548523
409908,0.029392,-0.106055,0.255179,0.021402755,-0.984893163,-0.001374184,0.187808,0.624188,0.303146,1016.548523
410008,-0.072599,-0.048781,0.454252,-0.022844286,-1.081036837,0.000424082,0.189278,0.621126,0.303993,1016.548523
410108,-0.134671,0.026709,0.611084,-0.131500204,-1.152305,-0.03135898,0.192227,0.619488,0.305917,1016.548523
410208,-0.157231,0.059744,0.688189,-0.265137245,-1.190333469,-0.07199102,0.194203,0.615447,0.306215,1016.548523
410308,-0.158637,0.009461,0.661347,-0.387613878,-1.173108061,-0.10255949,0.199687,0.612893,0.305589,1016.548523
410408,-0.12204,-0.059441,0.529813,-0.468526429,-1.1352,-0.13052551,0.201667,0.610844,0.305988,1016.548523
410508,-0.08975,-0.178569,0.321039,-0.491187959,-1.095774286,-0.128585918,0.202679,0.609382,0.304913,1016.548523
410608,-0.036702,-0.268002,0.088204,-0.436766633,-1.04828449,-0.104626224,0.205165,0.611809,0.30554,1016.548523
410708,0.032746,-0.326127,-0.112988,-0.327537653,-1.005964388,-0.103947041,0.206237,0.607526,0.300814,1016.548523
410808,0.096352,-0.338325,-0.249026,-0.230052347,-0.958155816,-0.104282245,0.207256,0.609551,0.299916,1016.548523
410908,0.180434,-0.306573,-0.337067,-0.172026224,-0.900925,-0.101882653,0.203857,0.612314,0.295544,1016.548523
411008,0.266574,-0.254965,-0.392816,-0.093953776,-0.859132041,-0.086706837,0.205372,0.613336,0.294595,1016.548523
411108,0.311542,-0.156849,-0.372964,0.006679388,-0.840632245,-0.060542755,0.20293,0.61499,0.292172,1016.548523
411208,0.327084,-0.046977,-0.275514,0.075100816,-0.832375714,-0.053454082,0.199991,0.616652,0.289748,1016.548523
411308,0.30338,0.023295,-0.141063,0.105818163,-0.828575918,-0.045513163,0.201572,0.618839,0.285352,1016.548523
411408,0.270168,0.045977,-0.004973,0.08382898,-0.816665918,-0.042816531,0.1991,0.618926,0.284352,1016.548523
411508,0.212275,0.017885,0.09899,0.026695,-0.802969694,-0.029476837,0.20206,0.618308,0.285826,1016.548523
411608,0.133371,-0.004352,0.170453,0.014852143,-0.823538061,-0.015850306,0.203544,0.617264,0.286276,1016.548523
411708,0.06701,0.003621,0.232235,0.015516429,-0.858037449,-0.025527755,0.204587,0.617369,0.283777,1016.548523
411808,0.033158,0.023767,0.290735,0.004191531,-0.900063571,-0.039591224,0.204633,0.617489,0.281278,1016.548523
411908,-0.002837,0.035956,0.331853,-0.013983163,-0.923997857,-0.027708469,0.206558,0.615794,0.284701,1016.548523
412008,-0.040476,0.066895,0.354335,-0.036475816,-0.945182245,-0.022140714,0.205592,0.611921,0.282498,1016.548523
412108,-0.072065,0.098973,0.348599,-0.068567755,-0.961325612,-0.016681633,0.208055,0.612307,0.284024,1016.548523
412208,-0.085265,0.126244,0.31395,-0.107183469,-0.967631939,-0.014940408,0.20855,0.610804,0.283948,1016.548523
412308,-0.082035,0.126238,0.253741,-0.115354796,-0.970757449,-0.011524694,0.210943,0.608033,0.28882,1016.548523
412408,-0.089596,0.103731,0.193824,-0.102236327,-0.973128061,0.006629184,0.210479,0.606144,0.286719,1016.548523
412508,-0.129198,0.065768,0.150403,-0.08654,-0.965738367,0.023706633,0.210966,0.605116,0.287168,1016.548523
412608,-0.167533,-0.000751,0.11362,-0.080608673,-0.961647347,0.030650204,0.214953,0.601091,0.286466,1016.548523
412708,-0.22893,-0.063404,0.095015,-0.043261531,-0.956028571,0.04248602,0.215455,0.603076,0.286568,1016.548523
412808,-0.273358,-0.134052,0.093669,-0.025091429,-0.94936051,0.027809796,0.213885,0.60191,0.290515,1016.548523
412908,-0.314742,-0.177802,0.097592,-0.02713051,-0.939249592,0.004779898,0.216939,0.597073,0.286263,1016.548523
413008,-0.307211,-0.170591,0.092696,-0.037470408,-0.929572449,-0.033838776,0.218384,0.595435,0.288687,1016.548523
413108,-0.222713,-0.107902,0.087779,-0.038020816,-0.938710816,-0.074032857,0.222303,0.594704,0.292161,1016.548523
413208,-0.121148,-0.020024,0.099337,-0.036912143,-0.953796224,-0.072335102,0.22135,0.592848,0.28956,1016.548523
413308,-0.064861,0.072646,0.128561,-0.054191531,-0.992760612,-0.039144694,0.221346,0.590855,0.289459,1016.548523
413408,-0.090197,0.087177,0.112799,-0.116657551,-1.004257041,0.001417143,0.224346,0.591828,0.289011,1016.548523
413508,-0.147205,0.081291,0.070413,-0.150712755,-1.02530398,-0.010308163,0.224844,0.59182,0.289011,1016.548523
413608,-0.124221,0.066914,0.011735,-0.158738673,-1.031994286,-0.049035918,0.223288,0.588212,0.291831,1016.548523
413708,-0.076842,0.057079,-0.04471,-0.162257551,-1.023518571,-0.066765612,0.223289,0.58871,0.291857,1016.548523
413808,-0.109522,0.033653,-0.11581,-0.15478551,-1.010731531,-0.03836949,0.224807,0.586267,0.290231,1016.548523
413908,-0.148673,0.030233,-0.173847,-0.131187347,-1.032921633,-0.048417959,0.220815,0.587801,0.290805,1016.548523
414008,-0.155783,0.039877,-0.214405,-0.081419898,-1.040201531,-0.066659898,0.221787,0.584748,0.291653,1016.548523
414108,-0.155533,0.097932,-0.216695,-0.025534184,-1.060229898,-0.084760102,0.221778,0.585222,0.292178,1016.548523
414208,-0.075287,0.15526,-0.211494,0.007737755,-1.090749286,-0.104951224,0.218226,0.585109,0.295676,1016.548523
414308,-0.010444,0.149159,-0.204145,0.053398776,-1.103664388,-0.080152551,0.220698,0.584523,0.296651,1016.548523
414408,-0.019119,0.114329,-0.178427,0.084630816,-1.122316327,-0.045759082,0.218701,0.58752,0.297302,1016.548523
414508,-0.035586,0.018557,-0.152909,0.054966224,-1.152463776,-0.032671735,0.220213,0.587046,0.296278,1016.548523
414608,-0.100456,-0.12663,-0.152193,0.035836224,-1.16158449,0.004702653,0.220194,0.586499,0.297252,1016.548523
414708,-0.221017,-0.229313,-0.165315,0.034557449,-1.173202041,0.036686939,0.222207,0.587512,0.296304,1016.548523
414808,-0.345998,-0.249607,-0.166526,0.011535714,-1.182289388,-0.011108571,0.222654,0.584893,0.298676,1016.548523
414908,-0.396707,-0.198004,-0.160735,-0.021846122,-1.199150306,-0.083462041,0.222136,0.583856,0.299624,1016.548523
415008,-0.377554,-0.072947,-0.139288,-0.062323878,-1.209272755,-0.131136939,0.225646,0.58188,0.298025,1016.548523
415108,-0.313362,0.144777,-0.079696,-0.099547347,-1.232927857,-0.19346551,0.221606,0.582297,0.301048,1016.548523
415208,-0.193409,0.423431,0.009646,-0.155612347,-1.25291051,-0.281045816,0.223512,0.580056,0.305445,1016.548523
415308,-0.031218,0.689227,0.095693,-0.273897143,-1.245492653,-0.351657041,0.224032,0.582089,0.304547,1016.548523
415408,0.132945,0.90738,0.125474,-0.400366735,-1.203299796,-0.38749551,0.222489,0.580498,0.306969,1016.548523
415508,0.298151,1.033036,0.053875,-0.510855,-1.166547245,-0.382643061,0.220514,0.58008,0.305944,1016.548523
415608,0.44917,1.068912,-0.050729,-0.556542959,-1.112642653,-0.337464184,0.217024,0.583598,0.30662,1016.548523
415708,0.495665,0.995871,-0.179894,-0.517045714,-1.053906837,-0.251347653,0.212083,0.585767,0.304721,1016.548523
415808,0.447648,0.894415,-0.293359,-0.410553163,-1.012426531,-0.143446224,0.208572,0.587742,0.306321,1016.548523
415908,0.437883,0.759076,-0.382572,-0.248166531,-0.993843878,-0.061253163,0.20215,0.591951,0.304023,1016.548523
416008,0.336514,0.670905,-0.373265,-0.06787949,-0.966429898,0.052008163,0.197677,0.592545,0.303548,1016.548523
416108,0.156443,0.544331,-0.311387,0.004582857,-0.891262551,0.064067755,0.197604,0.598307,0.308351,1016.548523
416208,0.004629,0.239804,-0.271589,-0.012883571,-0.81194051,-0.03832398,0.193617,0.596875,0.308273,1016.548523
416308,-0.064896,-0.199756,-0.274437,-0.013326122,-0.755546735,-0.152423776,0.191597,0.597333,0.309798,1016.548523
416408,-0.099011,-0.564544,-0.251219,0.008596939,-0.771455408,-0.23502898,0.194109,0.598836,0.308875,1016.548523
416508,-0.033718,-0.772527,-0.195325,-0.024566531,-0.822318469,-0.292258163,0.194677,0.601987,0.305529,1016.548523
416608,0.038923,-0.847232,-0.126967,-0.075916837,-0.855151327,-0.293361837,0.198156,0.602405,0.306055,1016.548523
416708,0.089435,-0.804553,-0.049792,-0.109491224,-0.913383163,-0.285003469,0.200165,0.601425,0.305005,1016.548523
416808,0.129654,-0.704996,0.059,-0.144579898,-0.974706327,-0.273018571,0.203646,0.603339,0.305608,1016.548523
416908,0.141632,-0.58403,0.174369,-0.185077449,-1.027606224,-0.258717143,0.20669,0.602938,0.302584,1016.548523
417008,0.127063,-0.460365,0.255829,-0.22289449,-1.055593367,-0.240590204,0.209216,0.601998,0.300535,1016.548523
417108,0.097755,-0.352184,0.288574,-0.249053878,-1.067803776,-0.215457653,0.210724,0.60449,0.300163,1016.548523
417208,0.029584,-0.257367,0.277787,-0.262206327,-1.083113571,-0.180244592,0.213142,0.599797,0.303434,1016.548523
417308,-0.026676,-0.166045,0.225804,-0.271728776,-1.06406551,-0.171984796,0.214206,0.601445,0.300011,1016.548523
417408,-0.084242,-0.100018,0.121536,-0.263055306,-1.022109388,-0.159014898,0.214186,0.600899,0.300986,1016.548523
417508,-0.092773,-0.026042,0.006802,-0.222009694,-0.995137143,-0.161187041,0.214716,0.602956,0.299588,1016.548523
417608,-0.074955,0.035009,-0.092696,-0.167014286,-0.954141122,-0.144677551,0.217186,0.601872,0.300538,1016.548523
417708,-0.028352,0.100383,-0.159691,-0.11113,-0.914997245,-0.159471837,0.21418,0.602369,0.301562,1016.548523
417808,0.035477,0.127024,-0.208185,-0.074627449,-0.864822449,-0.174247143,0.21218,0.603871,0.302137,1016.548523
417908,0.091725,0.107004,-0.246082,-0.067480306,-0.831643673,-0.164423061,0.211694,0.6049,0.301688,1016.548523
418008,0.11575,0.047837,-0.271175,-0.066169796,-0.809120102,-0.137910204,0.210693,0.607881,0.30234,1016.548523
418108,0.085352,-0.02246,-0.265826,-0.060532755,-0.799578163,-0.114328265,0.208728,0.607486,0.300814,1016.548523
418208,0.045843,-0.065882,-0.220497,-0.048269796,-0.801100306,-0.122776837,0.207752,0.608547,0.299865,1016.548523
418308,0.049304,-0.081298,-0.154661,-0.042536122,-0.799520612,-0.148044082,0.209221,0.609946,0.301442,1016.548523
418408,0.087161,-0.057359,-0.087139,-0.024707551,-0.802185714,-0.186199184,0.208216,0.610436,0.301966,1016.548523
418508,0.155743,-0.00962,-0.016569,-0.022603367,-0.822947449,-0.211255102,0.20679,0.612621,0.298569,1016.548523
418608,0.227648,0.046029,0.035991,-0.038366429,-0.836595306,-0.204527959,0.206368,0.61332,0.294596,1016.548523
418708,0.280769,0.089348,0.060194,-0.063366531,-0.852917347,-0.177270408,0.208268,0.613545,0.29962,1016.548523
418808,0.297787,0.111994,0.073003,-0.071301224,-0.880082449,-0.141435918,0.207839,0.616213,0.296248,1016.548523
418908,0.27838,0.110637,0.074563,-0.080374592,-0.902903878,-0.11149398,0.206392,0.616357,0.293748,1016.548523
419008,0.239044,0.087927,0.063636,-0.086080612,-0.91461602,-0.09420449,0.207822,0.616663,0.297273,1016.548523
419108,0.203085,0.04118,0.044637,-0.083755204,-0.92493898,-0.087413367,0.207878,0.616808,0.294274,1016.548523
419208,0.155366,-0.037872,0.022321,-0.070720918,-0.928200306,-0.082021735,0.209413,0.618873,0.292377,1016.548523
419308,0.08419,-0.131802,0.003619,-0.053042449,-0.924122449,-0.088464898,0.209422,0.618897,0.291877,1016.548523
419408,0.035186,-0.218942,-0.007441,-0.038405204,-0.925072245,-0.107168163,0.210978,0.622007,0.289031,1016.548523
419508,0.016171,-0.27899,0.00025,-0.019830612,-0.921007653,-0.116776633,0.212436,0.622884,0.291082,1016.548523
419608,0.011342,-0.311468,0.021091,-0.011359082,-0.913824898,-0.126799286,0.210464,0.618504,0.289353,1016.548523
419708,0.009836,-0.323357,0.053573,-0.00909551,-0.909827551,-0.128535,0.214518,0.620602,0.285957,1016.548523
419808,0.001063,-0.315347,0.091391,-0.001109898,-0.905734286,-0.129392143,0.216968,0.62393,0.288635,1016.548523
419908,-0.018652,-0.286954,0.131114,0.009686429,-0.903782959,-0.148350306,0.218486,0.621487,0.287009,1016.548523
420008,0.00447,-0.238105,0.178219,0.009845102,-0.927624286,-0.162981327,0.220499,0.6225,0.286061,1016.548523
420108,0.040776,-0.193524,0.198329,-0.009470612,-0.927457551,-0.156448265,0.22301,0.623505,0.285113,1016.548523
420208,0.066766,-0.162671,0.189802,-0.032590204,-0.941283673,-0.146407041,0.226467,0.622381,0.286562,1016.548523
420308,0.063411,-0.169399,0.153313,-0.034762449,-0.956100204,-0.119932449,0.226043,0.622582,0.282564,1016.548523
420408,0.066519,-0.190408,0.112951,-0.048957143,-0.981091939,-0.104358367,0.228976,0.62239,0.285564,1016.548523
420508,0.071475,-0.213557,0.069763,-0.029111837,-0.975237959,-0.108242857,0.230566,0.624102,0.280642,1016.548523
420608,0.068493,-0.220098,0.048584,-0.011518673,-0.977708367,-0.112588367,0.229067,0.621634,0.280515,1016.548523
420708,0.058179,-0.228753,0.029591,-0.005176837,-0.98718551,-0.100511327,0.233148,0.623306,0.275594,1016.548523
420808,0.048224,-0.227409,0.018509,0.002206122,-0.997440204,-0.103592245,0.233618,0.623226,0.277094,1016.548523
420908,0.047986,-0.203278,0.023661,0.011323469,-1.003830714,-0.117154286,0.236626,0.623725,0.27612,1016.548523
421008,0.065013,-0.17379,0.029186,0.018797245,-1.00356051,-0.133803163,0.236665,0.62432,0.274147,1016.548523
421108,0.091893,-0.141673,0.039668,0.019586837,-1.015914592,-0.135946429,0.238133,0.62522,0.275697,1016.548523
421208,0.114529,-0.118033,0.039127,0.015880204,-1.024991327,-0.128061531,0.237693,0.626867,0.272774,1016.548523
421308,0.118632,-0.103723,0.026863,0.007298878,-1.035915612,-0.115247449,0.239098,0.623637,0.277121,1016.548523
421408,0.12804,-0.097095,0.0027,0.00924,-1.0442,-0.107000918,0.242664,0.626266,0.27325,1016.548523
421508,0.160497,-0.088635,-0.035309,0.012363776,-1.050929592,-0.096764082,0.23973,0.62596,0.270225,1016.548523
421608,0.189544,-0.099726,-0.076192,0.025382041,-1.052543265,-0.072410918,0.240213,0.627398,0.271301,1016.548523
421708,0.203327,-0.102793,-0.115429,0.04118398,-1.05033898,-0.057706939,0.240292,0.630082,0.26743,1016.548523
421808,0.224605,-0.098133,-0.156349,0.060091224,-1.052027143,-0.05393949,0.241272,0.631513,0.268506,1016.548523
421908,0.266045,-0.091633,-0.19659,0.073880612,-1.062819898,-0.042452857,0.241318,0.631135,0.265982,1016.548523
422008,0.323242,-0.107997,-0.237034,0.090616429,-1.074439082,-0.034007755,0.236895,0.633842,0.263108,1016.548523
422108,0.374297,-0.17835,-0.276595,0.08785949,-1.10497551,-0.027247959,0.239973,0.637499,0.258789,1016.548523
422208,0.385037,-0.297512,-0.300525,0.073122857,-1.143412857,-0.011178673,0.238486,0.641508,0.258992,1016.548523
422308,0.322503,-0.44638,-0.309204,0.044763163,-1.210323571,-0.004372857,0.240583,0.642738,0.253545,1016.550232
422408,0.185789,-0.621303,-0.274746,0.011663469,-1.30179602,-0.030083061,0.237638,0.641411,0.250969,1016.550232
422508,-0.019232,-0.81477,-0.180849,-0.056783061,-1.378305816,-0.077262449,0.242626,0.645318,0.251174,1016.550232
422608,-0.231295,-0.962902,-0.0849,-0.192157857,-1.41489102,-0.140213061,0.244214,0.645535,0.246176,1016.550232
422708,-0.376667,-0.960981,-0.019168,-0.34444449,-1.398843265,-0.21378898,0.247185,0.646436,0.247228,1016.550232
422808,-0.435293,-0.779275,-0.000696,-0.47374051,-1.351727449,-0.276753571,0.249685,0.64642,0.246729,1016.550232
422908,-0.413396,-0.453199,-0.027273,-0.530393367,-1.29921102,-0.331346531,0.25121,0.647964,0.245306,1016.550232
423008,-0.289193,-0.079935,-0.056371,-0.54128,-1.233399388,-0.383888673,0.254147,0.644308,0.247628,1016.550232
423108,-0.071824,0.228247,-0.115076,-0.526762347,-1.144524898,-0.406814796,0.249149,0.645834,0.248702,1016.550232
423208,0.14802,0.492873,-0.187875,-0.481133776,-1.05150949,-0.362170918,0.245621,0.648758,0.251353,1016.550232
423308,0.316556,0.70623,-0.265207,-0.431597857,-0.986818061,-0.279529592,0.245183,0.651402,0.248481,1016.550232
423408,0.464478,0.835796,-0.360071,-0.372896939,-0.947190816,-0.138326837,0.239273,0.652662,0.245031,1016.550232
423508,0.501839,0.917539,-0.426052,-0.277782653,-0.894044388,0.018048265,0.235276,0.656164,0.246207,1016.550232
423608,0.387872,0.979094,-0.443842,-0.160551327,-0.810324898,0.147221429,0.225832,0.657857,0.245281,1016.550232
423708,0.171013,0.985725,-0.420978,-0.052503061,-0.737349592,0.181744694,0.221843,0.660886,0.245932,1016.550232
423808,-0.014155,0.920584,-0.351037,0.019380816,-0.690152449,0.126799898,0.214326,0.661382,0.248454,1016.550232
423908,-0.078107,0.773955,-0.267119,0.032393878,-0.670810714,0.043616224,0.211743,0.661679,0.253476,1016.550232
424008,-0.066977,0.578348,-0.170803,0.01207051,-0.68834602,0.011358061,0.207232,0.661678,0.254975,1016.550232
424108,-0.02264,0.447606,-0.065007,-0.010864286,-0.741358571,0.024634082,0.204225,0.661677,0.255973,1016.550232
424208,0.007416,0.385966,0.047947,-0.044370714,-0.810624388,0.025265816,0.203667,0.659548,0.25887,1016.550232
424308,0.026439,0.334892,0.151873,-0.100312143,-0.873667041,0.007601429,0.19964,0.661982,0.261495,1016.550232
424408,0.029546,0.258779,0.232289,-0.146219694,-0.935809388,-0.016282551,0.201123,0.660937,0.261945,1016.550232
424508,0.015377,0.157481,0.290495,-0.187908163,-0.991765204,-0.03440449,0.204085,0.661316,0.26347,1016.550232
424608,-0.020753,0.040278,0.328211,-0.235040408,-1.031097449,-0.054706327,0.202585,0.657852,0.263292,1016.550232
424708,-0.071898,-0.088564,0.34284,-0.288467347,-1.044660306,-0.073396735,0.205518,0.65766,0.266292,1016.550232
424808,-0.125184,-0.216847,0.315284,-0.321436939,-1.042120612,-0.071493878,0.205014,0.660135,0.266918,1016.550232
424908,-0.199135,-0.289221,0.268476,-0.318042959,-1.024368776,-0.048385306,0.206944,0.655973,0.269715,1016.550232
425008,-0.237183,-0.277227,0.223585,-0.300058061,-1.002585612,-0.048013571,0.208453,0.654005,0.268614,1016.550232
425108,-0.225438,-0.236818,0.173006,-0.258902347,-0.96675949,-0.055209184,0.214401,0.652841,0.270065,1016.550232
425208,-0.214225,-0.176433,0.137854,-0.195855816,-0.931755918,-0.047125816,0.210886,0.652326,0.271537,1016.550232
425308,-0.174329,-0.093484,0.128585,-0.122655204,-0.910500408,-0.049969388,0.212341,0.65121,0.273486,1016.550232
425408,-0.13442,-0.031276,0.144506,-0.069326327,-0.893485816,-0.041237143,0.212854,0.649257,0.272385,1016.550232
425508,-0.1032,0.011831,0.176497,-0.035113469,-0.880901327,-0.028235408,0.214831,0.65117,0.273487,1016.546204
425608,-0.096849,0.029958,0.214395,-0.003874694,-0.875847755,-0.020665918,0.215764,0.646526,0.276258,1016.546204
425708,-0.1046,0.028221,0.261668,0.011862347,-0.88641949,-0.02393449,0.215771,0.645055,0.275681,1016.546204
425808,-0.111928,-0.002365,0.298745,-0.005658163,-0.898435,-0.026363265,0.216272,0.641583,0.275004,1016.546204
425908,-0.114399,-0.047511,0.312575,-0.041241939,-0.911606939,-0.026166837,0.218284,0.642098,0.27403,1016.546204
426008,-0.117919,-0.087618,0.305897,-0.071482857,-0.921573061,-0.025482551,0.222239,0.640967,0.27548,1016.546204
426108,-0.128239,-0.107414,0.286946,-0.084399592,-0.931225102,-0.025353367,0.223703,0.639376,0.276904,1016.546204
426208,-0.135,-0.10339,0.266327,-0.101948776,-0.935390204,-0.031782857,0.224688,0.63834,0.277353,1016.546204
426308,-0.134581,-0.074976,0.23869,-0.107490918,-0.93377102,-0.033760816,0.225163,0.635792,0.278226,1016.546204
426408,-0.135728,-0.028652,0.214433,-0.108648878,-0.931899286,-0.033953061,0.226172,0.637793,0.277828,1016.546204
426508,-0.141826,0.04442,0.204089,-0.103304082,-0.929360918,-0.036554184,0.228148,0.633752,0.278125,1016.546204
426608,-0.118892,0.129108,0.205743,-0.107146224,-0.922113469,-0.050745714,0.228101,0.633133,0.280599,1016.546204
426708,-0.072654,0.216884,0.204243,-0.111558061,-0.912532755,-0.054281531,0.231537,0.630466,0.282972,1016.546204
426808,-0.019556,0.30098,0.201255,-0.11869949,-0.908746122,-0.043386939,0.230012,0.628923,0.284395,1016.546204
426908,0.023578,0.361424,0.18809,-0.118190204,-0.901389694,-0.027131531,0.228518,0.629445,0.28442,1016.546204
427008,0.024967,0.391662,0.185311,-0.096561224,-0.901254184,-0.013489592,0.230471,0.627822,0.286343,1016.546204
427108,0.027543,0.400748,0.201341,-0.085308571,-0.909202755,-0.015325816,0.229,0.625427,0.284716,1016.546204
427208,-0.001781,0.374185,0.218265,-0.068739898,-0.917475408,0.007904388,0.230407,0.623194,0.289114,1016.546204
427308,-0.008221,0.32758,0.240011,-0.069024286,-0.937824184,0.005457959,0.228415,0.623225,0.289113,1016.546204
427408,-0.015895,0.262358,0.254348,-0.074392347,-0.954187755,0.00786398,0.231379,0.625099,0.290715,1016.546204
427508,-0.029299,0.180375,0.25398,-0.083991327,-0.977150918,0.004196837,0.230833,0.619031,0.292409,1016.546204
427608,-0.038099,0.084952,0.239334,-0.089197857,-0.998683469,0.001394286,0.232351,0.622045,0.291562,1016.546204
427708,-0.0654,-0.027873,0.223003,-0.098183163,-1.023578673,0.009044694,0.233335,0.620013,0.291961,1016.546204
427808,-0.134253,-0.136503,0.194208,-0.105896429,-1.044050204,0.024117857,0.234797,0.617425,0.293334,1016.546204
427908,-0.218032,-0.219542,0.154801,-0.116400816,-1.072619082,0.016330714,0.23875,0.615297,0.294733,1016.546204
428008,-0.284588,-0.276041,0.112698,-0.139721122,-1.088903469,-0.007966633,0.239235,0.613272,0.295131,1016.546204
428108,-0.297543,-0.294564,0.052466,-0.160158469,-1.07011551,-0.066828061,0.240717,0.61173,0.295555,1016.546204
428208,-0.243909,-0.245702,-0.019066,-0.184722857,-1.059695306,-0.113307755,0.242635,0.611007,0.299529,1016.546204
428308,-0.153785,-0.157461,-0.121452,-0.194550714,-1.033652551,-0.127032959,0.248159,0.610044,0.296981,1016.546204
428408,-0.023438,-0.06227,-0.25188,-0.209838367,-1.021266837,-0.128476531,0.243657,0.610067,0.297979,1016.546204
428508,0.061143,0.039555,-0.36249,-0.151126837,-1.019753571,-0.107666122,0.243125,0.611972,0.30008,1016.546204
428608,0.172174,0.124371,-0.433352,-0.108468163,-1.036634694,-0.088311327,0.240169,0.614582,0.298706,1016.546204
428708,0.170226,0.144997,-0.513888,-0.115844694,-1.036065408,-0.01367602,0.235178,0.614139,0.299179,1016.546204
428808,0.118404,0.124653,-0.59193,-0.087789898,-1.051008673,0.030510204,0.233696,0.61618,0.29878,1016.546204
428908,0.034235,0.095523,-0.613543,-0.001856122,-1.076712551,0.028759184,0.228723,0.620743,0.299008,1016.546204
429008,-0.068264,0.028243,-0.587878,0.06034551,-1.106884796,0.020723776,0.228665,0.619602,0.301956,1016.546204
429108,-0.171779,-0.056683,-0.54339,0.059713776,-1.12366449,-0.002075714,0.225677,0.619649,0.301955,1016.546204
429208,-0.226212,-0.129498,-0.492166,0.034156633,-1.137467551,-0.046264082,0.225662,0.622092,0.303081,1016.546204
429308,-0.228501,-0.162623,-0.424922,0.022668469,-1.159600204,-0.08490051,0.225153,0.62108,0.30353,1016.546204
429408,-0.213673,-0.137154,-0.298547,0.024349694,-1.219061224,-0.120788061,0.222667,0.62361,0.303656,1016.546204
429508,-0.17012,-0.075692,-0.138534,-0.009835204,-1.272991939,-0.144696327,0.224132,0.622518,0.305105,1016.546204
429608,-0.166993,0.006574,0.014318,-0.120772245,-1.296605714,-0.165521939,0.226148,0.620566,0.303505,1016.546204
429708,-0.181495,0.089271,0.108732,-0.333517143,-1.271422143,-0.214418469,0.225595,0.620927,0.306529,1016.546204
429808,-0.148436,0.106701,0.061016,-0.549561531,-1.210411939,-0.284990612,0.225131,0.619039,0.304428,1016.546204
429908,-0.086698,0.058225,-0.106471,-0.656897347,-1.13577602,-0.30734898,0.2261,0.619449,0.305953,1016.546204
430008,-0.045134,0.024752,-0.308155,-0.636699082,-1.040308061,-0.292160408,0.225597,0.616966,0.305826,1016.546204
430108,-0.019129,-0.009584,-0.482863,-0.511115918,-0.968667347,-0.292543776,0.224673,0.620638,0.302505,1016.546204
430208,0.03247,-0.015126,-0.577635,-0.339407041,-0.918916735,-0.283098673,0.220159,0.624598,0.304706,1016.546204
430308,0.141298,0.011061,-0.610347,-0.182127551,-0.860967347,-0.234307143,0.215212,0.628237,0.303383,1016.546204
430408,0.23963,0.108373,-0.574435,-0.008193265,-0.807719592,-0.165753163,0.21227,0.628405,0.300883,1016.546204
430508,0.240702,0.219479,-0.492462,0.095637449,-0.751557755,-0.111262755,0.209279,0.631916,0.30156,1016.546204
430608,0.234769,0.296699,-0.388485,0.145154184,-0.737866633,-0.156353571,0.206848,0.634591,0.298687,1016.546204
430708,0.306665,0.242446,-0.306045,0.10163449,-0.733735204,-0.208079694,0.206783,0.634423,0.302186,1016.546204
430808,0.375622,0.150316,-0.24689,0.049572143,-0.775753163,-0.188134592,0.202885,0.636695,0.297788,1016.546204
430908,0.421054,0.076262,-0.18199,0.019600204,-0.849717857,-0.15038949,0.199344,0.637603,0.300836,1016.546204
431008,0.414603,0.074434,-0.078675,0.007519592,-0.93612898,-0.13140602,0.199832,0.637072,0.301311,1016.546204
431108,0.376649,0.117421,0.060034,-0.02376949,-1.006322245,-0.127815714,0.197341,0.636614,0.301285,1016.546204
431208,0.322366,0.189247,0.216142,-0.075873469,-1.061182143,-0.127344694,0.197869,0.637675,0.299836,1016.546204
431308,0.265085,0.28194,0.339133,-0.155870408,-1.091708673,-0.141473163,0.195858,0.637658,0.300835,1016.546204
431408,0.199793,0.365241,0.406815,-0.251919286,-1.105456939,-0.146935408,0.194777,0.637457,0.305333,1016.546204
431508,0.150252,0.433279,0.401555,-0.346624694,-1.088997143,-0.162291122,0.195284,0.636975,0.304808,1016.546204
431608,0.093841,0.460044,0.325128,-0.394825306,-1.064155204,-0.163532959,0.197234,0.633858,0.306655,1016.546204
431708,0.110909,0.465187,0.214146,-0.406892857,-1.037121633,-0.171069184,0.194685,0.632258,0.309577,1016.546204
431808,0.127028,0.385366,0.070046,-0.375884694,-0.999247653,-0.123204694,0.18967,0.634234,0.311677,1016.546204
431908,0.064703,0.316991,-0.0502,-0.284912857,-0.942859592,-0.052903673,0.191125,0.633117,0.313626,1016.546204
432008,0.007367,0.30041,-0.140974,-0.175837449,-0.906673878,-0.034650612,0.186121,0.635615,0.31525,1016.547974
432108,0.009115,0.282808,-0.185033,-0.06275898,-0.878501224,-0.046719388,0.181097,0.632609,0.317096,1016.547974
432208,0.027827,0.25829,-0.170048,0.027368469,-0.85343,-0.065531531,0.179079,0.634063,0.318671,1016.547974
432308,0.078976,0.205424,-0.124308,0.073606327,-0.831297551,-0.096607347,0.173505,0.632912,0.323617,1016.547974
432408,0.154942,0.132404,-0.060348,0.082378163,-0.82429602,-0.121340306,0.173039,0.635484,0.322244,1016.547974
432508,0.249782,0.068272,0.017227,0.054510102,-0.824556939,-0.121410102,0.171511,0.632446,0.32359,1016.547974
432608,0.297645,0.003075,0.08937,0.01021898,-0.832896531,-0.103184184,0.171005,0.632928,0.324115,1016.547974
432708,0.300796,-0.070417,0.143589,-0.042759898,-0.852825714,-0.093748878,0.166539,0.632549,0.323089,1016.547974
432808,0.273571,-0.162377,0.182974,-0.099645102,-0.869444184,-0.087887347,0.170502,0.635403,0.324742,1016.547974
432908,0.187544,-0.27044,0.214374,-0.12321051,-0.878946939,-0.063962143,0.168469,0.633345,0.326639,1016.547974
433008,0.04299,-0.347186,0.252922,-0.114114592,-0.892727857,-0.063191327,0.169972,0.633345,0.326139,1016.547974
433108,-0.085493,-0.375995,0.288076,-0.092570612,-0.907293469,-0.089631224,0.172925,0.6337,0.328165,1016.547974
433208,-0.088665,-0.339897,0.322112,-0.07734449,-0.933678878,-0.147082857,0.170847,0.632518,0.332612,1016.547974
433308,-0.047948,-0.294386,0.32676,-0.077217041,-0.951783673,-0.173481939,0.173225,0.626733,0.337831,1016.547974
433408,0.020033,-0.192796,0.337342,-0.069577857,-0.968618878,-0.199409286,0.175193,0.628622,0.339433,1016.547974
433508,0.150775,-0.107323,0.333865,-0.081901837,-0.988648673,-0.227168163,0.171225,0.632695,0.339135,1016.547974
433608,0.299577,-0.059511,0.305822,-0.088093878,-1.004514898,-0.215521224,0.175643,0.632954,0.34266,1016.547974
433708,0.41118,-0.062729,0.271281,-0.101154592,-1.00364602,-0.173242857,0.173125,0.632921,0.344159,1016.547974
433808,0.510182,-0.076293,0.24509,-0.132107857,-1.002800714,-0.130927857,0.172627,0.638386,0.344938,1016.547974
433908,0.557216,-0.115337,0.195557,-0.129695714,-0.98584,-0.070425306,0.172143,0.640908,0.344565,1016.547974
434008,0.52414,-0.137621,0.141272,-0.115331939,-0.971850714,-0.028510816,0.170663,0.643946,0.344217,1016.547974
434108,0.432685,-0.171548,0.088018,-0.092382041,-0.962567959,0.007840408,0.169627,0.647827,0.346919,1016.547974
434208,0.301705,-0.245334,0.042846,-0.055940102,-0.959094286,0.031248367,0.168619,0.651282,0.348096,1016.547974
434308,0.13088,-0.317745,0.03086,-0.032249082,-0.949954082,0.035341429,0.168117,0.654754,0.348774,1016.547974
434408,-0.00864,-0.397313,0.02327,-0.036979082,-0.967659694,0.019713265,0.16805,0.658547,0.352975,1016.547974
434508,-0.136352,-0.477745,0.032353,-0.021593776,-0.974428469,-0.004887551,0.167026,0.65849,0.354475,1016.547974
434608,-0.226887,-0.508796,0.071535,-0.011187653,-0.97992602,-0.045446327,0.165991,0.66287,0.357202,1016.547974
434708,-0.095919,-0.510243,0.110914,-0.039373776,-1.012252041,-0.100410306,0.172401,0.662599,0.360703,1016.547974
434808,-0.009036,-0.436638,0.154788,0.023818776,-0.966364898,-0.158392551,0.169884,0.668521,0.363006,1016.547974
434908,0.10365,-0.277867,0.242427,0.02072398,-0.979163776,-0.180087041,0.171854,0.671406,0.364658,1016.547974
435008,0.298572,-0.185703,0.264151,-0.051762347,-0.992945102,-0.174555,0.168882,0.675463,0.364361,1016.547974
435108,0.456977,-0.120225,0.198736,-0.112313061,-0.985300612,-0.114582959,0.171825,0.68125,0.367665,1016.547974
435208,0.584508,-0.062718,0.134336,-0.11531102,-0.976167551,-0.080809082,0.170836,0.685252,0.367868,1016.547974
435308,0.63675,-0.001922,0.115275,-0.079381531,-0.990452959,-0.065169592,0.167884,0.690354,0.366622,1016.547974
435408,0.600942,0.010092,0.078766,-0.079951122,-1.004386224,-0.02520898,0.166416,0.699868,0.366605,1016.547974
435508,0.496629,-0.005132,0.004712,-0.085837959,-1.003679592,0.02314398,0.165968,0.707446,0.364986,1016.547974
435608,0.368934,0.025765,-0.011862,-0.060496327,-0.994394694,-0.003440612,0.166412,0.713248,0.36879,1016.547974
435708,0.334823,0.064881,-0.037897,-0.062771327,-1.004684184,-0.055997551,0.164979,0.716904,0.365968,1016.547974
435808,0.412217,0.077619,-0.106772,-0.071925,-1.013799082,-0.074662143,0.161545,0.725525,0.3644,1016.547974
435908,0.544558,0.075359,-0.162824,-0.049956939,-1.019067449,-0.084745102,0.160147,0.733239,0.360282,1016.547974
436008,0.684017,0.069287,-0.190247,-0.040642041,-1.028405102,-0.084681735,0.156175,0.740278,0.360637,1016.547974
436108,1.02358,0.094163,-0.252333,-0.029960306,-1.031297959,-0.083861633,0.159325,0.752549,0.35375,1016.547974
436208,1.140619,0.119467,-0.33744,-0.008590408,-0.971184082,-0.058925408,0.153466,0.762375,0.348733,1016.547974
436308,1.440906,0.202925,-0.356694,-0.057932653,-1.053036429,0.025922755,0.147716,0.775455,0.338371,1016.547974
436408,1.458567,0.175396,-0.392779,-0.046946837,-0.985634082,0.051669286,0.147356,0.790699,0.333135,1016.547974
436508,1.255638,0.109308,-0.415321,-0.047855306,-0.973996837,0.239765408,0.145092,0.798268,0.321994,1016.545593
436608,0.980997,0.15442,-0.480715,-0.022163367,-0.985648061,0.293877245,0.140267,0.813631,0.315758,1016.545593
436708,0.69462,0.079401,-0.50434,0.022895408,-1.036099694,0.198376531,0.136422,0.819013,0.309013,1016.545593
436808,0.399783,-0.064463,-0.442149,0.08118102,-1.06861898,0.185638776,0.135461,0.828544,0.308496,1016.545593
436908,0.185957,-0.125186,-0.272536,0.142829286,-1.162067041,0.170787959,0.137627,0.837391,0.300432,1016.545593
437008,0.05219,-0.109496,-0.033772,0.178250204,-1.217392245,0.117009388,0.138649,0.84141,0.299636,1016.545593
437108,-0.050006,-0.067855,0.225094,0.146003061,-1.263313367,0.071263878,0.143651,0.847831,0.299468,1016.545593
437208,-0.148061,0.03479,0.486444,0.035552347,-1.290388469,0.041867551,0.147721,0.848484,0.294996,1016.547302
437308,-0.227014,0.185346,0.665566,-0.168013776,-1.302316531,0.008827755,0.157138,0.853171,0.298252,1016.547302
437408,-0.161456,0.33363,0.676402,-0.370443061,-1.315767449,-0.02657551,0.161621,0.853598,0.298279,1016.547302
437508,0.038373,0.444829,0.548956,-0.512198163,-1.274369592,-0.06428398,0.166665,0.857151,0.295459,1016.547302
437608,0.360931,0.553067,0.342328,-0.589580918,-1.236836837,-0.059601633,0.170174,0.859137,0.294563,1016.547302
437708,0.646212,0.642646,0.215044,-0.609935612,-1.167323469,-0.109313571,0.171851,0.868017,0.285998,1016.547302
437808,0.945521,0.579423,0.034565,-0.494835714,-1.078822449,-0.075008163,0.173934,0.872188,0.281704,1016.547302
437908,1.097971,0.399478,-0.092016,-0.315960306,-1.020654898,-0.006887551,0.1697,0.876871,0.268911,1016.547302
438008,0.702276,0.087578,-0.064257,-0.166616327,-0.883791939,0.153657857,0.171332,0.88117,0.262117,1016.547302
438108,0.320027,0.018013,-0.054459,-0.087934898,-0.807558673,0.259323571,0.173456,0.88743,0.255925,1016.547302
438208,0.08231,-0.043572,-0.086585,-0.015911327,-0.791702959,0.194443469,0.170993,0.887044,0.2544,1016.547302
438308,0.077488,0.026756,-0.062998,-0.006651429,-0.729423776,0.067538265,0.175041,0.891111,0.251605,1016.547302
438408,0.163676,-0.037693,0.039082,0.023703265,-0.724542857,0.061328673,0.177677,0.89492,0.244287,1016.547302
438508,0.201412,-0.041679,0.140723,0.057838776,-0.719738061,0.092045918,0.178696,0.897444,0.243414,1016.547302
438608,0.249351,0.014775,0.269208,0.073195918,-0.728619898,0.09258949,0.185821,0.899213,0.235496,1016.547302
438708,0.304646,0.028914,0.416005,0.019908673,-0.753889388,0.111206633,0.194301,0.900597,0.235075,1016.547302
438808,0.306058,-0.040429,0.480181,-0.128154796,-0.775183367,0.15616449,0.20102,0.907075,0.222887,1016.547302
438908,0.24158,-0.134114,0.450095,-0.239901327,-0.789804286,0.171526224,0.211099,0.904739,0.216265,1016.549011
439008,0.138055,-0.211504,0.409521,-0.235788367,-0.848970408,0.163901327,0.216647,0.906814,0.21287,1016.549011
439108,-0.002425,-0.228496,0.448653,-0.161358878,-0.924405816,0.163797449,0.226163,0.909774,0.210526,1016.549011
439208,-0.148969,-0.146738,0.589465,-0.109522551,-0.989177245,0.146851429,0.236176,0.906272,0.207353,1016.549011
439308,-0.259017,0.004399,0.76692,-0.075693776,-1.009400408,0.096802041,0.245702,0.904298,0.203756,1016.549011
439408,-0.412233,0.065616,0.941833,-0.073777959,-1.034349796,0.055187347,0.256673,0.901183,0.202607,1016.549011
439508,-0.576532,-0.018882,1.157021,-0.17673898,-1.033027551,0.031827551,0.267166,0.893166,0.199705,1016.549011
439608,-0.767108,-0.225709,1.370363,-0.297470612,-1.011034592,0.02716551,0.284033,0.890237,0.203081,1016.549011
439708,-0.874949,-0.402255,1.492122,-0.465212551,-1.029965714,0.098128163,0.300438,0.881957,0.20368,1016.549011
439808,-0.729549,-0.570194,1.457112,-0.604532041,-0.955445816,0.167425816,0.319794,0.873034,0.206253,1016.549011
439908,-0.815294,-0.746989,1.310043,-0.726218061,-0.908202653,0.23679398,0.332751,0.870859,0.205655,1016.549011
440008,-0.931616,-0.727974,1.034834,-0.640459694,-0.869852959,0.292455918,0.344162,0.860641,0.20665,1016.549011
440108,-1.125457,-0.532193,0.774977,-0.465766224,-0.897716531,0.302156327,0.353989,0.857654,0.213524,1016.549011
440208,-1.341652,-0.126493,0.689999,-0.272919796,-0.938985918,0.279466837,0.361851,0.848817,0.218092,1016.549011
440308,-1.356624,0.451704,0.766286,-0.13083449,-0.99095051,0.221418367,0.368655,0.84182,0.226261,1016.549011
440408,-1.313388,0.9916,0.939662,-0.032321224,-0.968647653,0.112819592,0.372869,0.831134,0.239249,1016.549011
440508,-1.272612,1.524728,1.164641,-0.018384796,-0.910063265,0.049668265,0.379096,0.821461,0.251288,1016.550781
440608,-1.231113,1.959802,1.344996,-0.051663367,-0.870505102,-0.020659388,0.383775,0.813162,0.266403,1016.550781
440708,-1.065185,2.262803,1.429085,-0.184053163,-0.860742245,-0.087037755,0.388891,0.801722,0.284364,1016.550781
440808,-0.688886,2.378222,1.39279,-0.338672755,-0.842705714,-0.163800816,0.394585,0.792956,0.298454,1016.550781
440908,-0.23868,2.307558,1.269684,-0.438835612,-0.834051837,-0.239345918,0.396825,0.787807,0.311221,1016.550781
441008,0.125554,2.095479,1.07487,-0.439471633,-0.801620816,-0.281626939,0.397704,0.784513,0.317066,1016.550781
441108,0.320193,1.826799,0.894229,-0.418414592,-0.80677398,-0.289419286,0.4011,0.780255,0.321362,1016.550781
441208,0.384977,1.549004,0.685099,-0.459928163,-0.832973265,-0.287346122,0.404033,0.780063,0.324362,1016.550781
441308,0.353735,1.195744,0.502422,-0.44602102,-0.866086327,-0.285674388,0.404984,0.780425,0.326887,1016.550781
441408,0.26646,0.850827,0.409712,-0.432626429,-0.901705,-0.261658061,0.411383,0.779133,0.330836,1016.550781
441508,0.167836,0.506616,0.3635,-0.424598878,-0.915804898,-0.211100816,0.412895,0.778659,0.329812,1016.550781
441608,0.017306,0.326311,0.379855,-0.297607041,-0.875358673,-0.179932653,0.415797,0.776402,0.33421,1016.550781
441708,-0.083458,0.341608,0.514562,-0.195519388,-0.894698061,-0.167368265,0.421293,0.775367,0.333161,1016.550781
441808,-0.026169,0.453913,0.696602,-0.21549,-0.928255204,-0.137130612,0.428641,0.773441,0.339584,1016.550781
441908,0.106289,0.655955,0.878336,-0.374092449,-0.905238776,-0.08776551,0.434059,0.77022,0.342432,1016.550781
442008,0.223689,0.941062,0.996499,-0.575221633,-0.813534898,-0.055512041,0.445954,0.767395,0.345308,1016.550781
442108,0.336455,1.329309,1.042024,-0.651074388,-0.753604796,-0.017097041,0.450828,0.764559,0.35068,1016.550781
442208,0.216514,1.560773,0.916117,-0.691821633,-0.693367347,-0.111792143,0.450214,0.762285,0.356576,1016.550781
442308,0.2623,1.787085,0.787057,-0.62727102,-0.755527347,-0.145663061,0.45398,0.758679,0.367921,1016.550781
442408,0.413468,1.964412,0.750899,-0.603332347,-0.814837653,-0.21603898,0.455821,0.756767,0.375842,1016.550781
442508,0.65933,2.005902,0.755239,-0.642857653,-0.886436837,-0.260172551,0.451787,0.755714,0.378289,1016.550781
442608,0.861535,1.880953,0.707124,-0.697340612,-0.910093878,-0.249658571,0.450657,0.758358,0.385938,1016.550781
442708,0.923329,1.698132,0.621708,-0.734610714,-0.887713163,-0.209568163,0.448115,0.755785,0.388309,1016.550781
442808,0.890419,1.523293,0.499921,-0.793484184,-0.863557857,-0.127732449,0.446079,0.76215,0.391638,1016.550781
442908,0.812939,1.492658,0.352631,-0.726439184,-0.864895306,-0.051702041,0.443542,0.767525,0.394915,1016.550781
443008,0.752431,1.74239,0.200029,-0.596161122,-0.883338469,-0.02237398,0.43453,0.768045,0.397437,1016.550781
443108,0.713595,2.072517,0.116527,-0.577470816,-0.928710612,-0.045873163,0.424948,0.769875,0.404033,1016.550781
443208,0.739852,2.323083,0.136152,-0.593630816,-0.963222755,-0.089193878,0.411426,0.775851,0.408832,1016.550781
443308,0.866451,2.415048,0.136788,-0.651452143,-0.983010306,-0.113779184,0.398435,0.779922,0.41153,1016.550781
443408,0.966451,2.260446,0.034131,-0.738178367,-0.977900612,-0.09485449,0.388335,0.785673,0.419829,1016.550781
443508,1.023143,1.992338,-0.148421,-0.716780204,-0.964027449,-0.021921122,0.371933,0.790989,0.418578,1016.550781
443608,1.004391,1.79601,-0.343254,-0.635093673,-0.94077602,0.084451224,0.358957,0.797575,0.420904,1016.550781
443708,0.844916,1.702419,-0.511738,-0.525383673,-0.942258061,0.188806224,0.342593,0.808443,0.418433,1016.548523
443808,0.597293,1.751311,-0.617234,-0.404224082,-0.947928367,0.228731122,0.325175,0.812729,0.418131,1016.548523
443908,0.341705,1.895468,-0.630821,-0.291412245,-0.991644898,0.209013367,0.310617,0.817628,0.424878,1016.548523
444008,0.153703,1.99002,-0.54372,-0.281776429,-1.000778367,0.149127143,0.295584,0.819617,0.429973,1016.548523
444108,0.057387,1.970795,-0.454431,-0.364713776,-0.97039,0.081636837,0.284115,0.823238,0.431147,1016.548523
444208,0.034983,1.841021,-0.321567,-0.430039388,-0.940777653,0.009981224,0.26701,0.822077,0.440088,1016.548523
444308,-0.187389,1.401783,-0.44427,-0.696108367,-0.874046224,0.007994898,0.25646,0.819036,0.44443,1016.548523
444408,0.06343,1.135108,-0.654691,-0.758711327,-0.944921122,0.04201898,0.247509,0.82269,0.444106,1016.548523
444508,0.172099,0.897675,-0.83917,-0.668653776,-0.887728673,0.052582755,0.233128,0.827548,0.441331,1016.548523
444608,0.03252,0.733841,-0.725396,-0.456210918,-0.888904388,0.016435306,0.224537,0.826373,0.447775,1016.548523
444708,-0.174315,0.571849,-0.532863,-0.296487959,-0.837761531,-0.072826735,0.214079,0.828034,0.447848,1016.548523
444808,-0.185555,0.43283,-0.354914,-0.272765408,-0.820062755,-0.160269898,0.208154,0.82628,0.444746,1016.548523
444908,0.00674,0.314325,-0.202708,-0.33360398,-0.827075918,-0.212938367,0.202664,0.825845,0.445218,1016.548523
445008,0.286124,0.239073,-0.067051,-0.346035102,-0.801766735,-0.262895204,0.203762,0.825098,0.43967,1016.548523
445108,0.437559,0.155389,0.002458,-0.367794388,-0.77216398,-0.280145408,0.198784,0.827169,0.43977,1016.548523
