time,gx,gy,gz,ax,ay,az,Mag_X,Mag_Y,Mag_Z,p
1067348,0.022749,0.029391,-0.019507,0,-0.03333898,0.051396531,-0.287678,-0.330585,0.392221,1016.549011
1067448,0.010862,0.024852,-0.01608,0.06279052,-0.028881327,0.057230102,-0.287245,-0.33572,0.394966,1016.549011
1067548,0.012785,0.02458,-0.014061,0.125333234,-0.021184796,0.064802347,-0.285749,-0.335245,0.394992,1016.549011
1067648,0.005205,0.034987,-0.017324,0.187381315,-0.024761224,0.065754898,-0.282832,-0.338949,0.398314,1016.549011
1067748,-0.005907,0.05,-0.022143,0.248689887,-0.033205306,0.061864286,-0.285893,-0.338098,0.402362,1016.550781
1067848,-0.009136,0.065941,-0.026683,0.309016994,-0.030698571,0.055274184,-0.286411,-0.338636,0.403336,1016.550781
1067948,-0.005294,0.070151,-0.0291,0.368124553,-0.035777857,0.04963898,-0.287029,-0.343401,0.409105,1016.550781
1068048,0.009657,0.07192,-0.034066,0.425779292,-0.03187449,0.04945551,-0.287581,-0.347998,0.411376,1016.550781
1068148,0.019468,0.079766,-0.038459,0.481753674,-0.025259796,0.053766939,-0.291173,-0.349703,0.416796,1016.550781
1068248,0.032684,0.084927,-0.045753,0.535826795,-0.022168367,0.057464388,-0.294245,-0.354332,0.420565,1016.550781
1068348,0.040101,0.083853,-0.051721,0.587785252,-0.017923367,0.057785102,-0.296885,-0.360134,0.427782,1016.550781
1068448,0.04497,0.072271,-0.055535,0.63742399,-0.019908265,0.064195102,-0.301463,-0.361798,0.432702,1016.550781
1068548,0.043792,0.069104,-0.058249,0.684547106,-0.024933061,0.069617347,-0.301117,-0.369143,0.439844,1016.550781
1068648,0.033114,0.058462,-0.057437,0.728968627,-0.028108163,0.070505204,-0.302257,-0.371481,0.447239,1016.550781
1068748,0.020224,0.050604,-0.05605,0.770513243,-0.03327102,0.072367755,-0.303837,-0.378127,0.450907,1016.550781
1068848,0.013023,0.046316,-0.05112,0.809016994,-0.026899694,0.074032653,-0.304982,-0.383455,0.458149,1016.550781
1068948,0.006416,0.043861,-0.048574,0.844327926,-0.018969796,0.072983469,-0.308116,-0.387256,0.465468,1016.550781
1069048,0.006727,0.038724,-0.055497,0.87630668,-0.006347857,0.075436735,-0.310237,-0.391523,0.471761,1016.550781
1069148,0.01309,0.037447,-0.063682,0.904827052,-0.000228776,0.077551224,-0.312885,-0.396353,0.479529,1016.550781
1069248,0.012674,0.050864,-0.076013,0.929776486,-0.001455408,0.077729388,-0.316033,-0.397712,0.487974,1016.550781
1069348,0.014333,0.060579,-0.089103,0.951056516,-0.005751327,0.071525408,-0.318649,-0.400476,0.494344,1016.55011
1069448,0.018402,0.061742,-0.101204,0.968583161,-0.023228878,0.065691327,-0.324301,-0.40877,0.502432,1016.55011
1069548,0.023531,0.041007,-0.088757,0.982287251,-0.041251939,0.070471429,-0.328426,-0.409069,0.509928,1016.55011
1069648,0.018713,0.018724,-0.079589,0.992114701,-0.03102449,0.07671602,-0.328066,-0.413898,0.516696,1016.55011
1069748,0.010667,-0.001609,-0.073533,0.998026728,-0.020902143,0.084146429,-0.336236,-0.422225,0.526284,1016.55011
1069848,0.005529,-0.023253,-0.070706,1,-0.01327102,0.092228571,-0.336431,-0.42719,0.536051,1016.55011
1069948,0.015652,-0.019308,-0.074318,0.998026728,-0.006825408,0.093255918,-0.337574,-0.432019,0.543319,1016.55011
1070048,0.041779,-0.002544,-0.08099,0.992114701,-0.003948878,0.092748776,-0.337234,-0.437395,0.551062,1016.55011
1070148,0.049154,-0.008105,-0.090885,0.982287251,-0.00976449,0.088168061,-0.335894,-0.440794,0.558907,1016.55011
1070248,0.044335,-0.020923,-0.089469,0.968583161,-0.026520204,0.082205306,-0.336098,-0.446282,0.569149,1016.55011
1070348,0.036733,-0.029643,-0.093986,0.951056516,-0.037201531,0.08423602,-0.334745,-0.452621,0.575842,1016.55011
1070448,0.048213,-0.040882,-0.087836,0.929776486,-0.045382041,0.087230102,-0.334458,-0.456647,0.58666,1016.55011
1070548,0.062547,-0.069855,-0.076805,0.904827052,-0.039277551,0.093712857,-0.334208,-0.465727,0.598723,1016.55011
1070648,0.081149,-0.091391,-0.074645,0.87630668,-0.030357041,0.093566633,-0.332957,-0.472331,0.610914,1016.55011
1070748,0.087434,-0.099796,-0.078797,0.844327926,-0.014474082,0.092035,-0.335136,-0.478736,0.620105,1016.55011
1070848,0.100062,-0.099391,-0.086378,0.809016994,0.000520408,0.085326122,-0.332446,-0.48501,0.63532,1016.55011
1070948,0.107717,-0.097646,-0.103906,0.770513243,0.005148776,0.080993776,-0.334131,-0.487959,0.645189,1016.55011
1071048,0.109637,-0.098597,-0.120242,0.728968627,0.015424898,0.085205306,-0.332781,-0.495794,0.651805,1016.55011
1071148,0.106778,-0.102679,-0.125552,0.684547106,0.014111429,0.086697857,-0.335523,-0.501861,0.66452,1016.55011
1071248,0.097507,-0.114188,-0.123956,0.63742399,0.002240612,0.083586735,-0.33624,-0.505396,0.675863,1016.55011
1071348,0.093287,-0.120429,-0.121313,0.587785252,-0.00871,0.088811122,-0.338378,-0.508715,0.683207,1016.55011
1071448,0.100403,-0.118708,-0.115452,0.535826795,-0.010953163,0.092078878,-0.33865,-0.515867,0.696872,1016.55011
1071548,0.114465,-0.12044,-0.117495,0.481753674,-0.012577143,0.087990714,-0.344895,-0.520432,0.710661,1016.55011
1071648,0.128251,-0.11954,-0.122167,0.425779292,-0.012708469,0.086837245,-0.343607,-0.52694,0.720852,1016.55011
1071748,0.139117,-0.119627,-0.127224,0.368124553,-0.011691429,0.081873673,-0.347835,-0.532959,0.733067,1016.55011
1071848,0.14027,-0.11357,-0.128368,0.309016994,-0.008455204,0.081096735,-0.35015,-0.542691,0.749102,1016.55011
1071948,0.130123,-0.110906,-0.131519,0.248689887,0.005485102,0.073299592,-0.346868,-0.548234,0.759345,1016.55011
1072048,0.114099,-0.102693,-0.128044,0.187381315,0.020302959,0.073513571,-0.346116,-0.555329,0.77151,1016.55011
1072148,0.087235,-0.096812,-0.128192,0.125333234,0.02160551,0.070730204,-0.349787,-0.560215,0.780777,1016.55011
1072248,0.076402,-0.090322,-0.131759,0.06279052,0.022044898,0.060976429,-0.347492,-0.565719,0.79052,1016.55011
1072348,0.071109,-0.092929,-0.120981,1.2246E-16,0.021046429,0.072116837,-0.35218,-0.571634,0.800735,1016.55011
1072448,0.070744,-0.094837,-0.109015,-0.06279052,0.020012959,0.070428469,-0.357326,-0.575452,0.809052,1016.55011
1072548,0.068141,-0.095627,-0.105666,-0.125333234,0.014422449,0.067332245,-0.359012,-0.578899,0.818896,1016.55188
1072648,0.062587,-0.106315,-0.102971,-0.187381315,0.020014286,0.069286531,-0.358694,-0.586316,0.827537,1016.55188
1072748,0.057879,-0.111162,-0.095795,-0.248689887,0.031309694,0.070785612,-0.359842,-0.58818,0.835457,1016.55188
1072848,0.063119,-0.102192,-0.091753,-0.309016994,0.039723878,0.070132449,-0.359475,-0.59448,0.84165,1016.55188
1072948,0.059145,-0.08354,-0.090019,-0.368124553,0.040899592,0.064360612,-0.358088,-0.597757,0.846996,1016.55188
1073048,0.050592,-0.077606,-0.085409,-0.425779292,0.041926224,0.058504388,-0.355167,-0.59897,0.850444,1016.55188
1073148,0.039686,-0.073585,-0.080508,-0.481753674,0.040007449,0.057817041,-0.350714,-0.600608,0.851869,1016.55188
1073248,0.026198,-0.075629,-0.073617,-0.535826795,0.046925714,0.058472959,-0.34427,-0.602776,0.853269,1016.55188
1073348,0.017034,-0.083712,-0.06643,-0.587785252,0.049808571,0.059290204,-0.333267,-0.598868,0.851476,1016.55188
1073448,0.004219,-0.089867,-0.064708,-0.63742399,0.053315204,0.058900408,-0.324331,-0.600078,0.852928,1016.55188
1073548,-0.015102,-0.093154,-0.059088,-0.684547106,0.056220816,0.059206224,-0.303258,-0.593572,0.845767,1016.55188
1073648,-0.042155,-0.08987,-0.055923,-0.728968627,0.050211837,0.057202041,-0.282681,-0.590522,0.837929,1016.55188
1073748,-0.06091,-0.088226,-0.046419,-0.770513243,0.054628776,0.048877041,-0.260593,-0.582987,0.82982,1016.55188
1073848,-0.077951,-0.091653,-0.039453,-0.809016994,0.053613469,0.041633776,-0.247915,-0.576652,0.818633,1016.55188
1073948,-0.099872,-0.094049,-0.031836,-0.844327926,0.05003949,0.039888367,-0.240303,-0.565994,0.812672,1016.55188
1074048,-0.113276,-0.093794,-0.027019,-0.87630668,0.045262551,0.043408878,-0.236704,-0.560304,0.807454,1016.55188
1074148,-0.119708,-0.088266,-0.02371,-0.904827052,0.039247857,0.043065306,-0.242486,-0.549289,0.79849,1016.55188
1074248,-0.122551,-0.088645,-0.02126,-0.929776486,0.029434388,0.043104592,-0.246316,-0.539896,0.791449,1016.55188
1074348,-0.120892,-0.094134,-0.022755,-0.951056516,0.020054796,0.04318898,-0.253222,-0.527708,0.789557,1016.55188
1074448,-0.118758,-0.105053,-0.024564,-0.968583161,0.014741531,0.049289694,-0.258015,-0.515736,0.781143,1016.55188
1074548,-0.118138,-0.112968,-0.028695,-0.982287251,0.009379898,0.054628878,-0.26098,-0.507693,0.781049,1016.55188
1074648,-0.106067,-0.107514,-0.036765,-0.992114701,0.014231531,0.055634184,-0.261336,-0.505829,0.773628,1016.55188
1074748,-0.091727,-0.093566,-0.043789,-0.998026728,0.022669184,0.047077347,-0.258336,-0.4994,0.773959,1016.55188
1074848,-0.078869,-0.090159,-0.05132,-1,0.024059592,0.035752245,-0.260278,-0.491798,0.772341,1016.55188
1074948,-0.073395,-0.098944,-0.057226,-0.998026728,0.025893265,0.03694449,-0.252641,-0.488019,0.764024,1016.55188
1075048,-0.077632,-0.104342,-0.066005,-0.992114701,0.028001633,0.044038367,-0.244124,-0.486539,0.761604,1016.55188
1075148,-0.09306,-0.112512,-0.064982,-0.982287251,0.029452041,0.058829286,-0.23662,-0.484094,0.760234,1016.55188
1075248,-0.113851,-0.120484,-0.060607,-0.968583161,0.036979286,0.066568061,-0.232621,-0.481144,0.759887,1016.55188
1075348,-0.129008,-0.116129,-0.053849,-0.951056516,0.047622551,0.062234286,-0.226526,-0.47796,0.754044,1016.55188
1075448,-0.137127,-0.099922,-0.047375,-0.929776486,0.052895408,0.043387041,-0.225522,-0.478949,0.753494,1016.55188
1075548,-0.143867,-0.089404,-0.046892,-0.904827052,0.052389898,0.027332245,-0.230978,-0.475824,0.752645,1016.55188
1075648,-0.148802,-0.084915,-0.053963,-0.87630668,0.061704388,0.021304592,-0.235391,-0.473093,0.749272,1016.55188
1075748,-0.147524,-0.075847,-0.052129,-0.844327926,0.04098449,0.024940816,-0.240861,-0.472982,0.748771,1016.549561
1075848,-0.146819,-0.071988,-0.041213,-0.809016994,0.035575714,0.03007449,-0.24525,-0.466715,0.744576,1016.549561
1075948,-0.150332,-0.076017,-0.036374,-0.770513243,0.029446531,0.031290204,-0.249191,-0.46257,0.742779,1016.549561
1076048,-0.151254,-0.087812,-0.028667,-0.728968627,0.026569592,0.037446224,-0.246639,-0.459974,0.739907,1016.549561
1076148,-0.152114,-0.093657,-0.027327,-0.684547106,0.033166837,0.036830612,-0.253015,-0.455645,0.735111,1016.549561
1076248,-0.1533,-0.098635,-0.032103,-0.63742399,0.038509388,0.03288898,-0.25052,-0.453193,0.735239,1016.549561
1076348,-0.160206,-0.102051,-0.034038,-0.587785252,0.032758469,0.029453163,-0.252948,-0.449023,0.732442,1016.549561
1076448,-0.164427,-0.09569,-0.037036,-0.535826795,0.046152041,0.027617347,-0.257821,-0.44569,0.727095,1016.549561
1076548,-0.156299,-0.090222,-0.053965,-0.481753674,0.053456224,0.020897041,-0.258808,-0.44565,0.726595,1016.549561
1076648,-0.152939,-0.084848,-0.051258,-0.425779292,0.024718163,0.026201939,-0.266273,-0.441545,0.726796,1016.549561
1076748,-0.156164,-0.081164,-0.041449,-0.368124553,0.019442245,0.028698469,-0.267733,-0.437962,0.725474,1016.549561
1076848,-0.158275,-0.071457,-0.033782,-0.309016994,0.02699398,0.026053571,-0.27021,-0.435407,0.7251,1016.549561
1076948,-0.150015,-0.071096,-0.032302,-0.248689887,0.028366224,0.023484898,-0.271673,-0.433318,0.723702,1016.549561
1077048,-0.143569,-0.073347,-0.032272,-0.187381315,0.031997959,0.02701102,-0.273111,-0.427694,0.721482,1016.549561
1077148,-0.135722,-0.076338,-0.027554,-0.125333234,0.034097857,0.025088571,-0.272101,-0.425194,0.72111,1016.549561
1077248,-0.140599,-0.073878,-0.025145,-0.06279052,0.031162449,0.024447755,-0.275504,-0.419964,0.717364,1016.549561
1077348,-0.136989,-0.06984,-0.023169,-2.4493E-16,0.028498469,0.024365102,-0.277518,-0.416019,0.719066,1016.549561
1077448,-0.12954,-0.062278,-0.025007,0.06279052,0.028220102,0.023871735,-0.277391,-0.412716,0.712721,1016.549561
1077548,-0.123256,-0.057539,-0.025649,0.125333234,0.033678469,0.019823571,-0.2784,-0.404303,0.714652,1016.549561
1077648,-0.128054,-0.064092,-0.027643,0.187381315,0.044391531,0.015696224,-0.280818,-0.399611,0.711381,1016.549561
1077748,-0.136037,-0.072249,-0.02925,0.248689887,0.058165714,0.017523673,-0.280725,-0.394412,0.707137,1016.549561
1077848,-0.144779,-0.075334,-0.031651,0.309016994,0.069642449,0.01608051,-0.278101,-0.387163,0.700996,1016.549561
1077948,-0.155859,-0.079824,-0.034215,0.368124553,0.073696633,0.012905408,-0.276018,-0.382992,0.696702,1016.549561
1078048,-0.158149,-0.086562,-0.039978,0.425779292,0.079266633,0.01814051,-0.271873,-0.376193,0.689036,1016.549561
1078148,-0.157269,-0.083348,-0.054557,0.481753674,0.064341224,0.022197959,-0.264239,-0.368951,0.681397,1016.549561
1078248,-0.148661,-0.06793,-0.057356,0.535826795,0.041219082,0.02663551,-0.263083,-0.362603,0.673706,1016.549561
1078348,-0.143774,-0.053769,-0.051028,0.587785252,0.030120612,0.025228673,-0.257383,-0.35815,0.662415,1016.549561
1078448,-0.14216,-0.045021,-0.045394,0.63742399,0.032282245,0.021139796,-0.251682,-0.348241,0.651904,1016.549561
1078548,-0.148983,-0.036046,-0.040573,0.684547106,0.038134388,0.014701837,-0.240505,-0.340411,0.641293,1016.549561
1078648,-0.16241,-0.030205,-0.038435,0.728968627,0.037990204,0.006525204,-0.232794,-0.335942,0.629003,1016.549561
1078748,-0.179679,-0.032541,-0.030202,0.770513243,0.044902143,0.000195918,-0.227566,-0.327447,0.616916,1016.549561
1078848,-0.196492,-0.037865,-0.022741,0.809016994,0.056378469,0.002269286,-0.214802,-0.319899,0.601282,1016.549561
1078948,-0.20458,-0.04614,-0.015199,0.844327926,0.062642041,0.003285918,-0.203074,-0.313427,0.587596,1016.549561
1079048,-0.20866,-0.058608,-0.011617,0.87630668,0.067833878,0.007606633,-0.192755,-0.305719,0.569461,1016.549561
1079148,-0.208358,-0.070788,-0.015018,0.904827052,0.065201531,0.015898776,-0.179484,-0.298155,0.553328,1016.549561
1079248,-0.203511,-0.065338,-0.022238,0.929776486,0.052785918,0.01894949,-0.171705,-0.29252,0.53759,1016.549561
1079348,-0.18707,-0.044889,-0.026036,0.951056516,0.042352551,0.021070918,-0.163449,-0.287939,0.522802,1016.549561
1079448,-0.160975,-0.026086,-0.028222,0.968583161,0.035297449,0.01304602,-0.155659,-0.280785,0.506641,1016.549561
1079548,-0.142524,-0.037426,-0.027073,0.982287251,0.03224051,0.008001837,-0.147915,-0.273753,0.492979,1016.549561
1079648,-0.130672,-0.054571,-0.029523,0.992114701,0.037650102,0.013648265,-0.146084,-0.266955,0.475791,1016.549561
1079748,-0.12212,-0.055825,-0.032914,0.998026728,0.047668776,0.021961122,-0.140389,-0.260533,0.465102,1016.549561
1079848,-0.118603,-0.06211,-0.031913,1,0.050914388,0.021530612,-0.141193,-0.256548,0.455283,1016.549561
1079948,-0.126884,-0.066935,-0.024226,0.998026728,0.051831939,0.020029082,-0.140049,-0.251719,0.448015,1016.549561
1080048,-0.126614,-0.062155,-0.017988,0.992114701,0.054143673,0.01607051,-0.146892,-0.245814,0.441795,1016.549561
1080148,-0.123544,-0.047882,-0.012712,0.982287251,0.05535602,0.007282755,-0.150849,-0.245679,0.440294,1016.549561
1080248,-0.12038,-0.042665,-0.005853,0.968583161,0.052763061,-0.004241735,-0.159747,-0.243873,0.436869,1016.549561
1080348,-0.109914,-0.041662,-0.006343,0.951056516,0.052084388,-0.003340102,-0.166177,-0.238692,0.435122,1016.549561
1080448,-0.098008,-0.041553,-0.010896,0.929776486,0.043798878,-0.001095816,-0.178109,-0.236461,0.43422,1016.549561
1080548,-0.091183,-0.054599,-0.003287,0.904827052,0.039292449,0.005881327,-0.186561,-0.237275,0.433167,1016.547302
1080648,-0.086513,-0.067747,-0.006737,0.87630668,0.040785102,0.005789286,-0.189051,-0.237236,0.433167,1016.547302
1080748,-0.077744,-0.073807,-0.006442,0.844327926,0.036964592,0.006895918,-0.193454,-0.233484,0.429344,1016.547302
1080848,-0.07459,-0.069387,-0.005974,0.809016994,0.03831051,0.007806837,-0.194384,-0.232802,0.425871,1016.547302
1080948,-0.068449,-0.061933,-0.006885,0.770513243,0.040979184,0.008921224,-0.194345,-0.231709,0.423922,1016.547302
1081048,-0.068046,-0.044153,-0.004392,0.728968627,0.046679796,0.005147347,-0.195262,-0.229009,0.420051,1016.547302
1081148,-0.066667,-0.02722,-0.005873,0.684547106,0.049920612,0.001124898,-0.194139,-0.225723,0.413706,1016.547302
1081248,-0.066412,-0.013605,-0.002502,0.63742399,0.051856939,0.002202041,-0.19353,-0.225441,0.407709,1016.547302
1081348,-0.06108,-0.004118,-0.001718,0.587785252,0.049236939,-0.001153367,-0.190016,-0.225923,0.406185,1016.547302
1081448,-0.055894,-0.000633,-0.000546,0.535826795,0.049545918,-0.005122653,-0.186431,-0.223246,0.401315,1016.547302
1081548,-0.058375,-0.007527,-0.009537,0.481753674,0.050661224,-0.006809184,-0.181787,-0.221413,0.392896,1016.547302
1081648,-0.055391,-0.017531,-0.007185,0.425779292,0.041324388,-0.001237551,-0.177662,-0.220617,0.385426,1016.547302
1081748,-0.04973,-0.030729,-0.004175,0.368124553,0.049247959,0.006371735,-0.172541,-0.215377,0.378684,1016.547302
1081848,-0.043835,-0.030709,-0.005211,0.309016994,0.053680306,0.004420204,-0.167438,-0.214146,0.372239,1016.547302
1081948,-0.046587,-0.024614,-0.0061,0.248689887,0.059353878,0.002664694,-0.162792,-0.211317,0.36387,1016.547302
1082048,-0.048959,-0.0175,-0.005804,0.187381315,0.059837755,0.001687245,-0.152173,-0.206115,0.356131,1016.547302
1082148,-0.050541,-0.007735,-0.009136,0.125333234,0.059251327,0.00174449,-0.146515,-0.20425,0.346712,1016.549011
1082248,-0.04925,-0.000231,-0.010954,0.06279052,0.062906633,0.003088878,-0.135916,-0.200093,0.339922,1016.549011
1082348,-0.054904,0.002723,-0.008303,3.6739E-16,0.036161429,-0.002240816,-0.12429,-0.193388,0.331759,1016.549011
1082448,-0.062937,-0.001153,0.007457,-0.06279052,0.039101122,-0.000240408,-0.111129,-0.190074,0.320919,1016.549011
1082548,-0.062511,-0.002287,0.016108,-0.125333234,0.047287041,-0.000866429,-0.098536,-0.184454,0.314205,1016.549011
1082648,-0.063924,-0.000286,0.008593,-0.187381315,0.052983878,-0.00172949,-0.083445,-0.180344,0.306916,1016.549011
1082748,-0.058065,-0.004815,0.009023,-0.248689887,0.055964694,-0.003864592,-0.069886,-0.175809,0.301651,1016.549011
1082848,-0.053417,-0.003959,0.002761,-0.309016994,0.058125918,0.001195714,-0.054825,-0.172767,0.295811,1016.549011
1082948,-0.048784,-0.006026,-0.002959,-0.368124553,0.060539694,0.00031051,-0.038747,-0.168199,0.289047,1016.549011
1083048,-0.05032,0.002734,-0.001463,-0.425779292,0.051744388,-0.000691429,-0.025692,-0.162185,0.284358,1016.549011
1083148,-0.051121,0.014351,-0.003383,-0.481753674,0.053488673,-0.011034694,-0.012152,-0.158196,0.280067,1016.549011
1083248,-0.058952,0.016164,-0.007639,-0.535826795,0.048157449,-0.017256429,-0.002172,-0.153347,0.279824,1016.549011
1083348,-0.065749,0.000955,-0.005168,-0.587785252,0.041345102,-0.018870306,0.00786,-0.150846,0.276456,1016.549011
1083448,-0.067376,-0.011006,0.000199,-0.63742399,0.045638469,-0.010593265,0.023316,-0.143119,0.276867,1016.549011
1083548,-0.065793,-0.017095,0.005472,-0.684547106,0.050532551,-0.001114286,0.032215,-0.139468,0.281071,1016.549011
1083648,-0.064086,-0.016743,0.010348,-0.728968627,0.057296122,0.003705918,0.04359,-0.138372,0.28565,1016.549011
1083748,-0.065314,-0.01694,0.007228,-0.770513243,0.058085408,-0.000837959,0.055561,-0.129594,0.28611,1016.549011
1083848,-0.0652,-0.022887,0.010751,-0.809016994,0.055477959,-0.001044694,0.065928,-0.125043,0.291865,1016.549011
1083948,-0.066089,-0.026458,0.005796,-0.844327926,0.051539592,0.001448163,0.075809,-0.123923,0.296443,1016.549011
1084048,-0.039219,-0.007119,0.002358,-0.87630668,0.04968449,-0.00063551,0.084685,-0.117853,0.302274,1016.549011
1084148,-0.009671,0.005026,0.002798,-0.904827052,0.04877398,-0.005406327,0.089137,-0.114034,0.304477,1016.549011
1084248,-0.003231,-0.023643,-0.008577,-0.929776486,0.041708367,-0.009522653,0.095946,-0.113084,0.313552,1016.549011
1084348,0.002516,-0.052154,-0.010072,-0.951056516,0.028489388,-0.004674286,0.101842,-0.106943,0.318883,1016.549011
1084448,0.009053,-0.054156,-0.00898,-0.968583161,0.028912959,0.010663469,0.106205,-0.106828,0.325407,1016.549011
1084548,0.003103,-0.053007,-0.007307,-0.982287251,0.037402857,0.008805306,0.109528,-0.105324,0.334506,1016.549011
1084648,-0.002666,-0.067196,-0.005368,-0.992114701,0.047391224,-0.000321939,0.110389,-0.102712,0.342156,1016.549011
1084748,-0.004558,-0.076671,-0.000393,-0.998026728,0.05795898,-0.003079082,0.115738,-0.103634,0.349129,1016.549011
1084848,-0.005964,-0.08039,0.001124,-1,0.059562143,-0.004401633,0.117084,-0.098587,0.357906,1016.549011
1084948,0.003022,-0.082412,-0.001982,-0.998026728,0.054956633,-0.00978449,0.119909,-0.096577,0.367031,1016.549011
1085048,0.012413,-0.075573,-0.001965,-0.992114701,0.05102398,-0.009490102,0.122698,-0.094165,0.378179,1016.549011
1085148,0.026664,-0.07057,-0.004206,-0.982287251,0.044409898,-0.014163061,0.123962,-0.093296,0.390751,1016.549011
1085248,0.03535,-0.078126,-0.001435,-0.968583161,0.040739184,-0.016281735,0.124272,-0.089824,0.401451,1016.549011
1085348,0.040941,-0.089092,-0.004414,-0.951056516,0.036172449,-0.011283878,0.128044,-0.089942,0.412972,1016.549011
1085448,0.052847,-0.098091,-0.002434,-0.929776486,0.032702755,-0.007748673,0.12935,-0.086486,0.423672,1016.549011
1085548,0.058663,-0.100186,0.000644,-0.904827052,0.037978571,-0.003697449,0.131602,-0.085159,0.436769,1016.549011
1085648,0.061935,-0.097554,-0.000795,-0.87630668,0.043234898,-0.006384592,0.130394,-0.084202,0.448341,1016.549011
1085748,0.065519,-0.090747,5.90E-05,-0.844327926,0.049583673,-0.012756531,0.129692,-0.084226,0.459362,1016.549011
1085848,0.068433,-0.086359,0.000574,-0.809016994,0.047119184,-0.015323367,0.130957,-0.082859,0.471959,1016.549011
1085948,0.070472,-0.082612,0.004466,-0.770513243,0.050412143,-0.01902449,0.132199,-0.079073,0.486182,1016.549011
1086048,0.071781,-0.083593,0.006997,-0.728968627,0.055262755,-0.018884184,0.131992,-0.080599,0.497128,1016.549011
1086148,0.071178,-0.094268,0.013221,-0.684547106,0.060419592,-0.014794184,0.128803,-0.078092,0.508275,1016.549011
1086248,0.059181,-0.102599,0.013904,-0.63742399,0.058191939,-0.012110714,0.128594,-0.076155,0.519897,1016.549011
1086348,0.05205,-0.109751,0.01895,-0.587785252,0.055801122,-0.003184184,0.127832,-0.073358,0.534569,1016.549011
1086448,0.054519,-0.106015,0.019965,-0.535826795,0.060312041,-0.00645051,0.122135,-0.070361,0.546741,1016.549011
1086548,0.060629,-0.087402,0.015895,-0.481753674,0.055474898,-0.015997449,0.118887,-0.07049,0.56076,1016.549011
1086648,0.06486,-0.075135,0.011119,-0.425779292,0.053138776,-0.025840102,0.108631,-0.068611,0.576877,1016.549011
1086748,0.06944,-0.07751,0.008482,-0.368124553,0.047079286,-0.031115102,0.099423,-0.063639,0.590649,1016.549011
1086848,0.076175,-0.086724,0.009309,-0.309016994,0.045610408,-0.026108571,0.09269,-0.062716,0.604717,1016.549011
1086948,0.081127,-0.095616,0.007986,-0.248689887,0.048248469,-0.020429694,0.079381,-0.059962,0.624384,1016.549011
1087048,0.085126,-0.100082,0.007633,-0.187381315,0.048414388,-0.018167653,0.064481,-0.054958,0.649674,1016.549011
1087148,0.088772,-0.104313,0.002879,-0.125333234,0.076758265,-0.017117959,0.04708,-0.055395,0.674685,1016.549011
1087248,0.092263,-0.103918,0.003765,-0.06279052,0.032749184,-0.024899388,0.036326,-0.053509,0.690802,1016.549011
1087348,0.072962,-0.109042,0.023239,-4.8986E-16,0.034984592,-0.02054898,0.033181,-0.052874,0.699349,1016.549011
1087448,0.073693,-0.102279,0.020654,0.06279052,0.042852347,-0.023039694,0.030477,-0.05289,0.710869,1016.549011
1087548,0.081656,-0.09581,0.018466,0.125333234,0.042299184,-0.031126939,0.025782,-0.052377,0.722414,1016.549011
1087648,0.084096,-0.094576,0.012987,0.187381315,0.04320898,-0.035050816,0.016046,-0.053921,0.736854,1016.549011
1087748,0.082018,-0.09311,0.008925,0.248689887,0.042423163,-0.039442653,0.008311,-0.050516,0.75155,1016.549011
1087848,0.080918,-0.091345,0.007533,0.309016994,0.040732959,-0.040635204,0.006082,-0.053079,0.763942,1016.549011
1087948,0.079628,-0.085288,0.012879,0.368124553,0.040200408,-0.041118163,0.001449,-0.053891,0.771913,1016.549011
1088048,0.079655,-0.082885,0.017321,0.425779292,0.041634184,-0.042903367,0.000207,-0.056494,0.784806,1016.549011
1088148,0.072953,-0.082935,0.025543,0.481753674,0.042456837,-0.039227653,-0.004408,-0.052799,0.792504,1016.549011
1088248,0.057778,-0.081962,0.034825,0.535826795,0.043669694,-0.039488571,-0.007067,-0.053691,0.801475,1016.549011
1088348,0.042952,-0.087692,0.041594,0.587785252,0.052250306,-0.03912949,-0.013622,-0.050816,0.806123,1016.549011
1088448,0.032684,-0.091413,0.046672,0.63742399,0.061171939,-0.039796735,-0.012366,-0.049473,0.81922,1016.549011
1088548,0.022951,-0.093282,0.051692,0.684547106,0.066517245,-0.040610816,-0.01347,-0.052711,0.824565,1016.549011
1088648,0.025235,-0.089136,0.055519,0.728968627,0.067735204,-0.045954592,-0.01772,-0.055813,0.838432,1016.549011
1088748,0.047707,-0.06703,0.051876,0.770513243,0.072021531,-0.058243673,-0.024311,-0.053034,0.84508,1016.549011
1088848,0.059685,-0.059272,0.043768,0.809016994,0.075630204,-0.068673265,-0.030473,-0.052425,0.855125,1016.549011
1088948,0.04915,-0.081486,0.031348,0.844327926,0.07028949,-0.072001633,-0.034694,-0.054956,0.867517,1016.549011
1089048,0.040201,-0.102286,0.022559,0.87630668,0.059981224,-0.068034286,-0.043819,-0.055722,0.875986,1016.549011
1089148,0.032794,-0.112662,0.019603,0.904827052,0.060843571,-0.056314592,-0.051062,-0.055811,0.890503,1016.549011
1089248,0.015472,-0.127967,0.020875,0.929776486,0.066876735,-0.046994286,-0.058178,-0.057557,0.897922,1016.549011
1089348,-0.001706,-0.143807,0.023646,0.951056516,0.06847551,-0.042868061,-0.066409,-0.058104,0.911914,1016.549011
1089448,-0.025453,-0.140806,0.030702,0.968583161,0.068356735,-0.040466122,-0.074076,-0.058491,0.922407,1016.549011
1089548,-0.044358,-0.130323,0.033114,0.982287251,0.06275602,-0.041287959,-0.078746,-0.059401,0.932377,1016.549011
1089648,-0.051837,-0.113616,0.034119,0.992114701,0.055393061,-0.048074082,-0.088465,-0.061395,0.945792,1016.549011
1089748,-0.049243,-0.099904,0.03497,0.998026728,0.049256224,-0.051980612,-0.092211,-0.061516,0.959811,1016.549011
1089848,-0.045298,-0.09548,0.031189,1,0.046545204,-0.062929796,-0.098863,-0.061373,0.969331,1016.549011
1089948,-0.041492,-0.109847,0.024934,0.998026728,0.044250306,-0.068355714,-0.104652,-0.063575,0.985746,1016.549011
1090048,-0.043946,-0.131795,0.019154,0.992114701,0.038632449,-0.066999592,-0.107298,-0.061952,0.994344,1016.549011
1090148,-0.044662,-0.144223,0.018498,0.982287251,0.027045204,-0.056433776,-0.112,-0.065424,1.005686,1016.549011
1090248,-0.041804,-0.145424,0.021977,0.968583161,0.017093571,-0.051215918,-0.11472,-0.063993,1.018281,1016.544983
1090348,-0.031571,-0.139978,0.026255,0.951056516,0.014312653,-0.045215,-0.113941,-0.066556,1.029676,1016.544983
1090448,-0.017207,-0.13134,0.034315,0.929776486,0.008471837,-0.044536939,-0.118076,-0.06192,1.038425,1016.544983
1090548,-0.007916,-0.127633,0.045024,0.904827052,0.009450816,-0.039778367,-0.118818,-0.063535,1.051369,1016.544983
1090648,-0.001973,-0.116767,0.05452,0.87630668,0.005292449,-0.039873061,-0.118423,-0.059348,1.057595,1016.544983
1090748,0.007972,-0.10389,0.067161,0.844327926,-0.00443898,-0.042019286,-0.119551,-0.054711,1.065346,1016.544983
1090848,0.025997,-0.100032,0.083713,0.809016994,-0.011003878,-0.049008265,-0.114218,-0.053689,1.073421,1016.544983
1090948,0.04055,-0.100433,0.095696,0.770513243,-0.017436224,-0.059667755,-0.109317,-0.051991,1.078023,1016.544983
1091048,0.072122,-0.113449,0.102969,0.728968627,-0.010367347,-0.056182347,-0.098337,-0.045664,1.077857,1016.544983
1091148,0.108255,-0.121323,0.102129,0.684547106,0.006638061,-0.052162041,-0.09486,-0.040786,1.079111,1016.544983
1091248,0.141603,-0.119845,0.088855,0.63742399,0.021385204,-0.049375714,-0.084918,-0.03703,1.080817,1016.544983
1091348,0.172382,-0.112745,0.068967,0.587785252,0.028844082,-0.051062245,-0.072899,-0.032093,1.078076,1016.544983
1091448,0.189185,-0.110319,0.050597,0.535826795,0.024812143,-0.056677143,-0.066931,-0.021797,1.080111,1016.544983
1091548,0.206099,-0.110101,0.034898,0.481753674,0.012746122,-0.059925816,-0.05991,-0.015833,1.078418,1016.544983
1091648,0.213864,-0.109399,0.02726,0.425779292,-0.003503469,-0.060774592,-0.05339,-0.006397,1.077404,1016.544983
1091748,0.22581,-0.103943,0.029338,0.368124553,-0.008965306,-0.055545816,-0.048359,0.000596,1.075762,1016.544983
1091848,0.236463,-0.104657,0.034946,0.309016994,0.007469286,-0.064832347,-0.042274,0.008713,1.071172,1016.544983
1091948,0.234736,-0.110439,0.030434,0.248689887,0.029713776,-0.070363367,-0.038243,0.019185,1.070207,1016.544983
1092048,0.227305,-0.111618,0.021744,0.187381315,0.055430408,-0.072345102,-0.031615,0.025921,1.063042,1016.544983
1092148,0.21531,-0.113045,0.013199,0.125333234,0.067605714,-0.078959082,-0.028395,0.036392,1.052056,1016.544983
1092248,0.198211,-0.119605,0.008532,0.06279052,0.072240918,-0.077909796,-0.023159,0.043914,1.039418,1016.544983
1092348,0.182228,-0.119511,0.003042,6.1232E-16,0.061532755,-0.07528551,-0.01535,0.056572,1.023037,1016.544983
1092448,0.165215,-0.116322,-0.001893,-0.06279052,0.046292041,-0.072280102,-0.006999,0.067349,1.004055,1016.544983
1092548,0.153516,-0.110424,-0.001625,-0.125333234,0.034469082,-0.072847857,0.000386,0.079709,0.983649,1016.544983
1092648,0.144302,-0.105723,0.005523,-0.187381315,0.029280612,-0.073933469,0.00329,0.093635,0.963319,1016.544983
1092748,0.135972,-0.104335,0.008445,-0.248689887,0.028815204,-0.081567347,0.009724,0.105135,0.940364,1016.544983
1092848,0.121709,-0.100094,0.011515,-0.309016994,0.026803878,-0.08607602,0.009614,0.115074,0.920829,1016.544983
1092948,0.107148,-0.086019,0.01344,-0.368124553,0.028664082,-0.087810102,0.011075,0.126179,0.897346,1016.544983
1093048,0.101862,-0.07916,0.016757,-0.425779292,0.032799592,-0.096027959,0.007492,0.138191,0.877412,1016.544983
1093148,0.094803,-0.085221,0.023054,-0.481753674,0.033504592,-0.096897041,0.002441,0.1498,0.855952,1016.544983
1093248,0.087771,-0.094146,0.026866,-0.535826795,0.035367449,-0.089828061,0.001335,0.160254,0.836442,1016.544983
1093348,0.079454,-0.09758,0.029039,-0.587785252,0.038567449,-0.08206449,-0.005661,0.172015,0.812483,1016.544983
1093448,0.077898,-0.090877,0.031463,-0.63742399,0.039558673,-0.082987551,-0.010748,0.179566,0.79232,1016.544983
1093548,0.056292,-0.092527,0.038143,-0.684547106,0.046937347,-0.09054,-0.019757,0.190813,0.769334,1016.544983
1093648,0.026103,-0.102032,0.043826,-0.728968627,0.044663673,-0.093134694,-0.026728,0.201152,0.743799,1016.544983
1093748,0.002041,-0.095466,0.043096,-0.770513243,0.029952755,-0.088808878,-0.034258,0.203905,0.720382,1016.544983
1093848,-0.017233,-0.08113,0.044025,-0.809016994,0.025373061,-0.095114388,-0.039289,0.211102,0.697194,1016.544983
1093948,-0.030506,-0.089319,0.046016,-0.844327926,0.029249592,-0.105192449,-0.046824,0.216322,0.674404,1016.544983
1094048,-0.028548,-0.109083,0.048361,-0.87630668,0.035022857,-0.10787898,-0.048901,0.219415,0.652514,1016.544983
1094148,-0.024572,-0.106139,0.047433,-0.904827052,0.02855449,-0.107506633,-0.05396,0.221582,0.630071,1016.544983
1094248,-0.021268,-0.09652,0.041339,-0.929776486,0.021153367,-0.115107245,-0.060539,0.224697,0.609179,1016.544983
1094348,-0.018935,-0.098561,0.038489,-0.951056516,0.002364796,-0.119198776,-0.064624,0.229765,0.588389,1016.544983
1094448,-0.01811,-0.114108,0.050187,-0.968583161,0.004269184,-0.11586102,-0.070262,0.227762,0.569742,1016.544983
1094548,-0.021218,-0.143713,0.059915,-0.982287251,0.006532449,-0.105734388,-0.073889,0.225277,0.550071,1016.544983
1094648,-0.032566,-0.169437,0.069177,-0.992114701,0.008525612,-0.095160714,-0.078022,0.22427,0.530975,1016.544983
1094748,-0.047259,-0.185929,0.075008,-0.998026728,0.014710204,-0.092288673,-0.078688,0.222662,0.512855,1016.544983
1094848,-0.059918,-0.189901,0.073272,-1,0.018038163,-0.089706531,-0.083299,0.217251,0.492031,1016.544983
1094948,-0.066775,-0.177955,0.065134,-0.998026728,0.024723367,-0.099208163,-0.085393,0.216333,0.470437,1016.544983
1095048,-0.061616,-0.166227,0.048913,-0.992114701,0.023297245,-0.113452041,-0.090043,0.209332,0.451537,1016.544983
1095148,-0.051305,-0.163236,0.034302,-0.982287251,0.015445204,-0.123346939,-0.102578,0.20367,0.428186,1016.544983
1095248,-0.039516,-0.168246,0.023706,-0.968583161,0.003796837,-0.13163602,-0.110116,0.196482,0.403761,1016.544983
1095348,-0.028043,-0.175158,0.020197,-0.951056516,-0.006112041,-0.12745602,-0.122167,0.188298,0.380783,1016.544983
1095448,-0.023981,-0.190409,0.022667,-0.929776486,-0.009953776,-0.12677398,-0.133206,0.17865,0.35673,1016.544983
1095548,-0.022117,-0.213639,0.027136,-0.904827052,-0.004748469,-0.119994796,-0.144146,0.166777,0.327052,1016.544983
1095648,-0.025656,-0.237078,0.02904,-0.87630668,-0.005117959,-0.114225612,-0.157121,0.152347,0.299245,1016.544983
1095748,-0.026524,-0.259476,0.034467,-0.844327926,-0.000799082,-0.099660816,-0.172123,0.139348,0.273514,1016.544983
1095848,-0.019636,-0.271415,0.035011,-0.809016994,0.017626837,-0.101897245,-0.188723,0.120152,0.252475,1016.544983
1095948,-0.015049,-0.26283,0.031302,-0.770513243,0.019197347,-0.11466449,-0.204301,0.099519,0.22986,1016.544983
1096048,-0.014107,-0.249028,0.024933,-0.728968627,0.017431939,-0.128931735,-0.22291,0.081303,0.209871,1016.544983
1096148,-0.014935,-0.242767,0.018907,-0.684547106,0.012274184,-0.140764286,-0.241549,0.062019,0.191331,1016.544983
1096248,-0.002985,-0.248761,0.016368,-0.63742399,0.010598061,-0.151531633,-0.263696,0.041247,0.173712,1016.544983
1096348,0.014097,-0.260798,0.013208,-0.587785252,0.006373878,-0.143628265,-0.283992,0.019086,0.163541,1016.544983
1096448,0.027257,-0.268006,0.006505,-0.535826795,0.00561949,-0.144173776,-0.302318,-0.005147,0.154268,1016.544983
1096548,0.053626,-0.253448,0.003238,-0.481753674,-0.001114796,-0.147243673,-0.328099,-0.025751,0.144671,1016.544983
1096648,0.070632,-0.248566,0.003526,-0.425779292,-0.007530816,-0.156314286,-0.35103,-0.045268,0.142648,1016.544983
1096748,0.078194,-0.23793,0.013501,-0.368124553,-0.012606735,-0.152589898,-0.37351,-0.06591,0.143074,1016.542786
1096848,0.082004,-0.233983,0.02702,-0.309016994,-0.010538469,-0.149672857,-0.400466,-0.087454,0.142947,1016.542786
1096948,0.08154,-0.233482,0.041459,-0.248689887,-0.004816939,-0.147405714,-0.421026,-0.106826,0.147448,1016.542786
1097048,0.077395,-0.227119,0.059234,-0.187381315,0.006847755,-0.144545,-0.446617,-0.123273,0.155098,1016.542786
1097148,0.072104,-0.206694,0.067549,-0.125333234,0.021819286,-0.141222653,-0.468715,-0.135791,0.162953,1016.542786
1097248,0.05778,-0.193828,0.069907,-0.06279052,0.034943469,-0.14087051,-0.487906,-0.147576,0.175358,1016.542786
1097348,0.041985,-0.183436,0.067855,-7.3479E-16,0.040833776,-0.141736429,-0.506525,-0.154218,0.184518,1016.542786
1097448,0.021027,-0.179321,0.062858,0.06279052,0.045716735,-0.145693469,-0.525764,-0.156705,0.200905,1016.542786
1097548,0.009211,-0.177854,0.051721,0.125333234,0.048821531,-0.147303469,-0.534944,-0.162075,0.211643,1016.542786
1097648,0.010901,-0.177222,0.030381,0.187381315,0.04793898,-0.149870306,-0.541109,-0.163458,0.221587,1016.542786
1097748,0.031324,-0.16903,0.014132,0.248689887,0.030815714,-0.156336122,-0.54629,-0.166376,0.231954,1016.542786
1097848,0.056914,-0.162182,0.002042,0.309016994,0.017102755,-0.155407245,-0.549979,-0.165356,0.243025,1016.542786
1097948,0.081215,-0.144666,-0.006173,0.368124553,-0.000428878,-0.153637449,-0.556617,-0.167655,0.251418,1016.542786
1098048,0.103166,-0.125217,-0.011827,0.425779292,-0.015345306,-0.158172143,-0.560752,-0.168974,0.259363,1016.542786
1098148,0.114644,-0.104712,-0.011355,0.481753674,-0.023862653,-0.166580102,-0.564933,-0.169417,0.269857,1016.542786
1098248,0.12714,-0.091294,-0.001691,0.535826795,-0.024939592,-0.180101837,-0.568115,-0.16838,0.280429,1016.542786
1098348,0.139282,-0.091368,0.011709,0.587785252,-0.019170612,-0.186062959,-0.57121,-0.165632,0.286578,1016.546204
1098448,0.135767,-0.100568,0.025114,0.63742399,-0.015212245,-0.178485408,-0.573378,-0.165062,0.296124,1016.546204
1098548,0.133202,-0.104791,0.032004,0.684547106,0.001492347,-0.166812347,-0.580477,-0.162797,0.303246,1016.546204
1098648,0.127423,-0.091003,0.029066,0.728968627,0.007776224,-0.158999082,-0.581133,-0.162701,0.311768,1016.546204
1098748,0.118745,-0.082221,0.03469,0.770513243,0.011983878,-0.163115102,-0.583251,-0.160515,0.318892,1016.546204
1098848,0.118995,-0.073117,0.042265,0.809016994,0.016982857,-0.16296449,-0.585894,-0.157397,0.327565,1016.546204
1098948,0.13146,-0.048433,0.046718,0.844327926,0.018269184,-0.170655102,-0.588992,-0.156642,0.333613,1016.546204
1099048,0.149517,-0.022851,0.043444,0.87630668,0.01777898,-0.183215408,-0.587589,-0.155412,0.338688,1016.546204
1099148,0.16625,-0.004693,0.040223,0.904827052,0.011362857,-0.191289898,-0.591148,-0.154553,0.342736,1016.546204
1099248,0.172653,0.001914,0.038721,0.929776486,0.009504796,-0.195242449,-0.593267,-0.152866,0.349834,1016.546204
1099348,0.172947,-0.003815,0.039468,0.951056516,0.004162245,-0.187893469,-0.592849,-0.151098,0.354434,1016.546204
1099448,0.172902,-0.011112,0.042992,0.968583161,-0.003045612,-0.181899694,-0.592431,-0.148831,0.35906,1016.546204
1099548,0.179525,-0.014913,0.046092,0.982287251,-0.00440051,-0.174871224,-0.593985,-0.141028,0.363464,1016.546204
1099648,0.199206,-0.007592,0.050146,0.992114701,-0.003946429,-0.169060306,-0.592596,-0.142812,0.368886,1016.546204
1099748,0.216309,-0.001245,0.049153,0.998026728,-0.005783469,-0.175054898,-0.593621,-0.143366,0.37036,1016.546204
1099848,0.230959,0.000385,0.047946,1,-0.007612041,-0.182522755,-0.591175,-0.137073,0.37369,1016.546204
1099948,0.241746,-0.010537,0.047125,0.998026728,-0.010508469,-0.191732959,-0.594304,-0.137886,0.38116,1016.547974
1100048,0.247114,-0.023494,0.04547,0.992114701,-0.01396898,-0.193790408,-0.59285,-0.134542,0.383838,1016.547974
1100148,0.255054,-0.026571,0.046236,0.982287251,-0.016698265,-0.194504184,-0.590411,-0.132235,0.386965,1016.547974
1100248,0.254339,-0.02224,0.047821,0.968583161,-0.019734898,-0.197303469,-0.590458,-0.127397,0.390217,1016.547974
1100348,0.250216,-0.008998,0.052636,0.951056516,-0.023446735,-0.200253673,-0.592566,-0.124689,0.396867,1016.547974
1100448,0.252031,0.002002,0.055338,0.929776486,-0.035193878,-0.213023163,-0.590566,-0.125693,0.396317,1016.547974
1100548,0.256447,-0.011865,0.061857,0.904827052,-0.048680102,-0.213689286,-0.591623,-0.123355,0.399942,1016.547974
1100648,0.254684,-0.028754,0.07332,0.87630668,-0.057836122,-0.21035051,-0.59019,-0.121056,0.403568,1016.547974
1100748,0.249382,-0.03356,0.080833,0.844327926,-0.066262245,-0.206606327,-0.589171,-0.11903,0.40267,1016.547974
1100848,0.250241,-0.023102,0.088481,0.809016994,-0.068682551,-0.196981735,-0.586774,-0.114353,0.408423,1016.547974
1100948,0.247804,0.001258,0.094509,0.770513243,-0.063615102,-0.190812245,-0.588322,-0.112979,0.411498,1016.547974
1101048,0.245239,0.026122,0.095143,0.728968627,-0.05816949,-0.198792755,-0.591373,-0.111605,0.415071,1016.547974
1101148,0.242876,0.049086,0.094118,0.684547106,-0.049806224,-0.193818265,-0.588853,-0.110576,0.413624,1016.547974
1101248,0.233843,0.057836,0.094242,0.63742399,-0.037957857,-0.213751633,-0.585921,-0.106308,0.417352,1016.547974
1101348,0.217554,0.047434,0.090814,0.587785252,-0.022388367,-0.212902449,-0.589429,-0.107297,0.4183,1016.547974
1101448,0.195779,0.040125,0.079946,0.535826795,-0.027749592,-0.211618776,-0.586493,-0.105994,0.421376,1016.547974
1101548,0.165314,0.035634,0.068467,0.481753674,-0.027767245,-0.211541837,-0.591,-0.103504,0.423001,1016.547974
1101648,0.145043,0.028594,0.053434,0.425779292,-0.034591122,-0.201125204,-0.589988,-0.105465,0.4219,1016.547974
1101748,0.123945,0.016625,0.04078,0.368124553,-0.044041224,-0.193783265,-0.586025,-0.102113,0.423578,1016.547974
1101848,0.097548,0.008797,0.027839,0.309016994,-0.052316224,-0.186516735,-0.585603,-0.102812,0.427552,1016.547974
1101948,0.074925,0.008431,0.016476,0.248689887,-0.057457449,-0.179488163,-0.588057,-0.098216,0.42628,1016.547974
1102048,0.056674,0.010359,0.010359,0.187381315,-0.062655612,-0.179988061,-0.584593,-0.100811,0.427153,1016.547974
1102148,0.04658,0.027677,0.010022,0.125333234,-0.065362755,-0.175596735,-0.586645,-0.09746,0.43083,1016.547974
1102248,0.034657,0.05745,0.015415,0.06279052,-0.066017857,-0.172706735,-0.584183,-0.09807,0.432304,1016.547974
1102348,-0.002626,0.081508,0.014288,-2.69546E-15,-0.05796898,-0.184883878,-0.584693,-0.099581,0.432727,1016.547974
1102448,-0.021981,0.09592,0.016751,-0.06279052,-0.058275,-0.199421327,-0.582659,-0.097025,0.430856,1016.547974
1102548,-0.026196,0.102309,0.014243,-0.125333234,-0.054797347,-0.205466633,-0.584679,-0.097066,0.432355,1016.547974
1102648,-0.021936,0.116548,0.00348,-0.187381315,-0.054186429,-0.202629898,-0.584209,-0.097146,0.433854,1016.547974
1102748,-0.02603,0.129852,-0.014994,-0.248689887,-0.04620449,-0.199412143,-0.58067,-0.09905,0.430755,1016.547974
1102848,-0.051284,0.131541,-0.03575,-0.309016994,-0.037856122,-0.204668265,-0.584177,-0.099541,0.431728,1016.547974
1102948,-0.079891,0.121537,-0.056461,-0.368124553,-0.030839286,-0.206048878,-0.583659,-0.099002,0.430754,1016.547974
1103048,-0.09243,0.113839,-0.071856,-0.425779292,-0.025016327,-0.210955,-0.581195,-0.098616,0.43228,1016.547974
1103148,-0.087256,0.124693,-0.081204,-0.481753674,-0.018584694,-0.214192143,-0.579711,-0.099162,0.432755,1016.547974
1103248,-0.087253,0.117887,-0.084082,-0.535826795,-0.011211939,-0.217534694,-0.578196,-0.103099,0.431052,1016.547302
1103348,-0.101061,0.094409,-0.084702,-0.587785252,-0.01286949,-0.218335408,-0.577274,-0.103307,0.435051,1016.547302
1103448,-0.115101,0.090204,-0.08441,-0.63742399,-0.016060612,-0.206710306,-0.576274,-0.10133,0.435153,1016.547302
1103548,-0.133768,0.091086,-0.077667,-0.684547106,-0.014596122,-0.195015612,-0.572744,-0.10276,0.432579,1016.547302
1103648,-0.169035,0.086212,-0.068826,-0.728968627,-0.021023776,-0.187099388,-0.573743,-0.104239,0.432503,1016.547302
1103748,-0.184648,0.092384,-0.058698,-0.770513243,-0.015187143,-0.184691735,-0.573268,-0.107284,0.43335,1016.547302
1103848,-0.189332,0.122737,-0.052396,-0.809016994,-0.001043878,-0.179236327,-0.570298,-0.10738,0.43435,1016.547302
1103948,-0.172629,0.145525,-0.053026,-0.844327926,0.014626224,-0.189592857,-0.576257,-0.107237,0.433349,1016.547302
1104048,-0.153807,0.156399,-0.06222,-0.87630668,0.031301224,-0.192701633,-0.570245,-0.10873,0.431275,1016.547302
1104148,-0.126633,0.159961,-0.073653,-0.904827052,0.044392755,-0.185934286,-0.569752,-0.111727,0.431123,1016.547302
1104248,-0.105931,0.151063,-0.089139,-0.929776486,0.037638061,-0.172163776,-0.572252,-0.111712,0.431622,1016.547302
1104348,-0.085735,0.134542,-0.10314,-0.951056516,0.040011429,-0.161797143,-0.567751,-0.112233,0.430598,1016.547302
1104448,-0.058701,0.126787,-0.11834,-0.968583161,0.035474184,-0.149280816,-0.567755,-0.114226,0.430496,1016.547302
1104548,-0.034959,0.129353,-0.132819,-0.982287251,0.020928265,-0.145490204,-0.569769,-0.116235,0.431394,1016.547302
1104648,-0.013865,0.148572,-0.140664,-0.992114701,0.005883265,-0.146668061,-0.564754,-0.117713,0.42932,1016.547302
1104748,-0.001376,0.167831,-0.141078,-0.998026728,0.003699898,-0.152434898,-0.564298,-0.11535,0.431946,1016.547302
1104848,0.000233,0.177097,-0.135589,-1,0.00723102,-0.155951429,-0.56276,-0.117246,0.429346,1016.549011
1104948,-0.003428,0.176172,-0.125188,-0.998026728,0.01893602,-0.156490918,-0.561754,-0.11674,0.428872,1016.549011
1105048,-0.009227,0.166576,-0.113083,-0.992114701,0.032024388,-0.158381633,-0.561224,-0.119641,0.426721,1016.549011
1105148,-0.010033,0.154777,-0.10081,-0.982287251,0.044527449,-0.153676633,-0.559279,-0.120291,0.429195,1016.549011
1105248,-0.006897,0.137089,-0.093554,-0.968583161,0.057744286,-0.150558265,-0.560265,-0.119753,0.42872,1016.549011
1105348,-0.004284,0.125028,-0.087051,-0.951056516,0.052261327,-0.148043673,-0.557769,-0.122259,0.428094,1016.549011
1105448,-0.004073,0.125165,-0.083512,-0.929776486,0.047189796,-0.124129082,-0.554763,-0.122757,0.42707,1016.549011
1105548,0.001962,0.132045,-0.080022,-0.904827052,0.048213061,-0.120343163,-0.555241,-0.121704,0.426121,1016.549011
1105648,0.003905,0.143958,-0.07606,-0.87630668,0.043390918,-0.122406633,-0.552254,-0.123246,0.426046,1016.549011
1105748,-0.002345,0.152764,-0.070931,-0.844327926,0.042514286,-0.128790408,-0.553164,-0.121519,0.421623,1016.549011
1105848,-0.010543,0.150503,-0.060105,-0.809016994,0.047559694,-0.133291327,-0.553215,-0.123632,0.424021,1016.549011
1105948,-0.018539,0.143327,-0.050674,-0.770513243,0.055475816,-0.127109796,-0.553677,-0.124525,0.421971,1016.549011
1106048,-0.023744,0.125141,-0.041404,-0.728968627,0.062846327,-0.125632245,-0.55073,-0.122201,0.424598,1016.549011
1106148,-0.034235,0.104552,-0.03385,-0.684547106,0.069550102,-0.120217143,-0.548752,-0.124748,0.424971,1016.549011
1106248,-0.035337,0.087458,-0.022305,-0.63742399,0.080929898,-0.113397653,-0.548698,-0.126098,0.421896,1016.549011
1106348,-0.045907,0.073097,-0.018956,-0.587785252,0.069399082,-0.108573776,-0.548175,-0.127529,0.420321,1016.549011
1106448,-0.06131,0.04644,-0.017334,-0.535826795,0.069796735,-0.11249449,-0.549225,-0.126163,0.423395,1016.550781
1106548,-0.072233,0.018049,-0.012029,-0.481753674,0.068819796,-0.109824898,-0.546731,-0.124707,0.423472,1016.550781
1106648,-0.078388,-0.00717,-0.007623,-0.425779292,0.063861837,-0.10461551,-0.54574,-0.127214,0.423346,1016.550781
1106748,-0.08092,-0.02857,-0.004571,-0.368124553,0.056799592,-0.100377755,-0.544226,-0.132148,0.421593,1016.550781
1106848,-0.0836,-0.042693,0.001488,-0.309016994,0.051174694,-0.101243163,-0.544242,-0.130702,0.422668,1016.550781
1106948,-0.09451,-0.050654,0.00838,-0.248689887,0.043125102,-0.09931898,-0.544746,-0.128725,0.42327,1016.550781
1107048,-0.110723,-0.053763,0.017366,-0.187381315,0.035148469,-0.101077857,-0.545705,-0.134069,0.420491,1016.550781
1107148,-0.129922,-0.054893,0.027674,-0.125333234,0.033557347,-0.101115204,-0.546689,-0.132535,0.420067,1016.550781
1107248,-0.14828,-0.059017,0.039664,-0.06279052,0.038197959,-0.097597959,-0.545183,-0.135998,0.41889,1016.550781
1107348,-0.171607,-0.061149,0.047451,-9.7972E-16,0.04642898,-0.094573571,-0.543753,-0.135692,0.422414,1016.550781
1107448,-0.189024,-0.060283,0.050853,0.06279052,0.055647347,-0.096775612,-0.546253,-0.136175,0.422888,1016.550781
1107548,-0.208419,-0.056874,0.055986,0.125333234,0.062926633,-0.10412602,-0.541732,-0.14061,0.420162,1016.550781
1107648,-0.221037,-0.06134,0.058115,0.187381315,0.067337245,-0.118837347,-0.544699,-0.139019,0.419237,1016.550781
1107748,-0.227682,-0.073436,0.057958,0.248689887,0.073105918,-0.125817755,-0.545763,-0.145625,0.421906,1016.550781
1107848,-0.228864,-0.09965,0.052108,0.309016994,0.075752959,-0.123508367,-0.545177,-0.142925,0.417535,1016.550781
1107948,-0.215751,-0.105652,0.046801,0.368124553,0.075842857,-0.128846837,-0.546729,-0.14454,0.420457,1016.550781
1108048,-0.210129,-0.106302,0.037513,0.425779292,0.077369796,-0.132045,-0.545215,-0.143519,0.419508,1016.549011
1108148,-0.228221,-0.131889,0.028711,0.481753674,0.069537245,-0.14063602,-0.544237,-0.14904,0.419729,1016.549011
1108248,-0.254355,-0.141933,0.020733,0.535826795,0.057770102,-0.138556224,-0.545277,-0.147152,0.422329,1016.549011
1108348,-0.273691,-0.131367,0.02232,0.587785252,0.049542755,-0.131163061,-0.544735,-0.149032,0.419729,1016.549011
1108448,-0.301114,-0.119941,0.024336,0.63742399,0.044154796,-0.138938571,-0.546729,-0.149498,0.419703,1016.549011
1108548,-0.315173,-0.121513,0.027498,0.684547106,0.039785102,-0.137599184,-0.541729,-0.154986,0.417926,1016.549011
1108648,-0.321317,-0.106043,0.032437,0.728968627,0.038841429,-0.140300714,-0.540743,-0.155524,0.4184,1016.549011
1108748,-0.321656,-0.091487,0.03721,0.770513243,0.036099592,-0.15442398,-0.540251,-0.159019,0.418223,1016.549011
1108848,-0.320542,-0.088495,0.039267,0.809016994,0.032034694,-0.158908776,-0.543208,-0.161865,0.41607,1016.549011
1108948,-0.318421,-0.074386,0.038669,0.844327926,0.02728551,-0.14843,-0.53773,-0.16245,0.416046,1016.549011
1109048,-0.313461,-0.066291,0.037256,0.87630668,0.02161398,-0.140278878,-0.54021,-0.166847,0.414817,1016.549011
1109148,-0.305122,-0.057652,0.034628,0.904827052,0.016461837,-0.133201122,-0.539639,-0.167658,0.410769,1016.549011
1109248,-0.291367,-0.053605,0.031645,0.929776486,0.013912143,-0.123160306,-0.540625,-0.16712,0.410294,1016.549011
1109348,-0.2684,-0.042714,0.027399,0.951056516,0.013058265,-0.110319694,-0.538646,-0.169169,0.410692,1016.549011
1109448,-0.237436,-0.013813,0.025901,0.968583161,0.008661939,-0.10728449,-0.536632,-0.173114,0.40899,1016.549011
1109548,-0.206072,0.019135,0.026689,0.982287251,0.007814082,-0.106793367,-0.537633,-0.175589,0.408863,1016.549011
1109648,-0.173007,0.055647,0.028498,0.992114701,0.003187143,-0.105181735,-0.537519,-0.173806,0.402942,1016.549011
1109748,-0.1477,0.080387,0.033194,0.998026728,0.00423,-0.112621429,-0.536056,-0.175894,0.40434,1016.550781
1109848,-0.123322,0.095793,0.041806,1,0.005071633,-0.113870816,-0.53604,-0.177341,0.403264,1016.550781
1109948,-0.097222,0.100006,0.050488,0.998026728,0.005885102,-0.115529592,-0.534518,-0.177791,0.40174,1016.550781
1110048,-0.074681,0.094158,0.064496,0.992114701,0.00679949,-0.113053367,-0.535514,-0.177775,0.401739,1016.550781
1110148,-0.06334,0.088227,0.076046,0.982287251,0.003470714,-0.108530408,-0.535014,-0.181745,0.401037,1016.550781
1110248,-0.049995,0.085825,0.08972,0.968583161,-0.00163398,-0.098664694,-0.53742,-0.18099,0.396563,1016.550781
1110348,-0.035428,0.09079,0.10336,0.951056516,-0.002898776,-0.077876633,-0.536918,-0.179005,0.396665,1016.550781
1110448,-0.019517,0.10445,0.115212,0.929776486,-0.003136429,-0.073289082,-0.535372,-0.180877,0.393565,1016.550781
1110548,-0.003307,0.122134,0.120318,0.904827052,-0.000760204,-0.073606939,-0.534859,-0.177872,0.393218,1016.550781
1110648,0.011492,0.131715,0.123473,0.87630668,0.007869592,-0.071938776,-0.534852,-0.179343,0.392641,1016.550781
1110748,0.024562,0.138779,0.125989,0.844327926,0.01346602,-0.07207449,-0.537333,-0.179279,0.392141,1016.550781
1110848,0.034443,0.149227,0.133206,0.809016994,0.023242143,-0.072052653,-0.535279,-0.181135,0.388541,1016.550781
1110948,0.043976,0.154324,0.137326,0.770513243,0.028257653,-0.079436837,-0.537234,-0.180509,0.386567,1016.550781
1111048,0.050404,0.151573,0.14319,0.728968627,0.032564796,-0.087841429,-0.535706,-0.177471,0.38522,1016.550781
1111148,0.054367,0.144248,0.14799,0.684547106,0.028858776,-0.08936,-0.535719,-0.179488,0.385619,1016.550781
1111248,0.064048,0.131293,0.149789,0.63742399,0.027332041,-0.094606939,-0.535218,-0.178001,0.385695,1016.550781
1111348,0.075643,0.119332,0.151222,0.587785252,0.02382102,-0.093296531,-0.536649,-0.178805,0.382145,1016.545044
1111448,0.082405,0.11317,0.151619,0.535826795,0.023333469,-0.091871939,-0.53613,-0.177768,0.381196,1016.545044
1111548,0.093643,0.120837,0.151072,0.481753674,0.022136633,-0.090762143,-0.538114,-0.177713,0.380696,1016.545044
1111648,0.106748,0.140611,0.156258,0.425779292,0.019149592,-0.092741939,-0.5391,-0.177175,0.380221,1016.545044
1111748,0.130693,0.16199,0.162115,0.368124553,0.009799184,-0.104291224,-0.538559,-0.174096,0.378375,1016.545044
1111848,0.156837,0.174811,0.166788,0.309016994,-0.004211939,-0.113900714,-0.538513,-0.174474,0.37585,1016.545044
1111948,0.181514,0.172588,0.172413,0.248689887,-0.017419796,-0.127758367,-0.539494,-0.175905,0.374774,1016.545044
1112048,0.19603,0.153482,0.181566,0.187381315,-0.02396051,-0.133597245,-0.543458,-0.174797,0.373824,1016.545044
1112148,0.201327,0.122291,0.1889,0.125333234,-0.029077245,-0.134253878,-0.540428,-0.172257,0.371953,1016.545044
1112248,0.199361,0.087769,0.198653,0.06279052,-0.03556449,-0.133458776,-0.541911,-0.171213,0.371503,1016.545044
1112348,0.190864,0.068521,0.204962,1.10218E-15,-0.040882857,-0.132285,-0.541397,-0.167709,0.371181,1016.545044
1112448,0.178452,0.063653,0.216931,-0.06279052,-0.042650816,-0.131574184,-0.544384,-0.166665,0.371231,1016.545044
1112548,0.162768,0.075739,0.226974,-0.125333234,-0.043422653,-0.129189082,-0.545836,-0.163556,0.369384,1016.545044
1112648,0.1423,0.090981,0.241951,-0.187381315,-0.043385714,-0.122717449,-0.54528,-0.161925,0.366462,1016.545044
1112748,0.149766,0.117968,0.247947,-0.248689887,-0.035905408,-0.126365816,-0.545265,-0.158911,0.366114,1016.545044
1112848,0.159519,0.138696,0.2432,-0.309016994,-0.027628571,-0.119566122,-0.54572,-0.155319,0.364293,1016.545044
1112948,0.157228,0.145314,0.232022,-0.368124553,-0.02744102,-0.113180204,-0.546734,-0.154854,0.365317,1016.545044
1113048,0.162991,0.172666,0.214049,-0.425779292,-0.030635,-0.11226602,-0.54816,-0.153167,0.361894,1016.545044
1113148,0.178868,0.209578,0.196367,-0.481753674,-0.028318469,-0.113136122,-0.548112,-0.15205,0.359446,1016.545044
1113248,0.194071,0.220611,0.178488,-0.535826795,-0.029103469,-0.130165,-0.549132,-0.149615,0.361072,1016.545044
1113348,0.215943,0.1924,0.163046,-0.587785252,-0.033499796,-0.143453571,-0.550593,-0.14653,0.359725,1016.545044
1113448,0.238699,0.166761,0.154332,-0.63742399,-0.042476429,-0.157551531,-0.549546,-0.144432,0.357328,1016.545044
1113548,0.266924,0.139281,0.146449,-0.684547106,-0.05666398,-0.175449796,-0.550024,-0.14338,0.356379,1016.545044
1113648,0.289994,0.101538,0.144613,-0.728968627,-0.072555102,-0.192179694,-0.548458,-0.139747,0.353059,1016.545044
1113748,0.30663,0.055975,0.146096,-0.770513243,-0.085678878,-0.188637449,-0.549459,-0.136766,0.35371,1016.545044
1113848,0.313627,0.014667,0.148541,-0.809016994,-0.097029082,-0.173360306,-0.549497,-0.132402,0.356438,1016.545044
1113948,0.31671,-0.021089,0.148583,-0.844327926,-0.104434286,-0.160004184,-0.546476,-0.129886,0.355067,1016.545044
1114048,0.319496,-0.044591,0.148361,-0.87630668,-0.109681735,-0.145026939,-0.548927,-0.128256,0.353143,1016.545044
1114148,0.324637,-0.047623,0.140814,-0.904827052,-0.105918265,-0.13465398,-0.546446,-0.12832,0.353643,1016.545044
1114248,0.339948,-0.040059,0.128875,-0.929776486,-0.097317245,-0.134353367,-0.546977,-0.126415,0.355744,1016.545044
1114348,0.364547,-0.030493,0.10988,-0.951056516,-0.090201939,-0.140412245,-0.549436,-0.123812,0.354371,1016.545044
1114448,0.398366,-0.016453,0.090119,-0.968583161,-0.08175398,-0.14688551,-0.545936,-0.12185,0.353974,1016.545044
1114548,0.427584,0.002237,0.065108,-0.982287251,-0.079769286,-0.150720816,-0.548457,-0.117921,0.356176,1016.546753
1114648,0.449983,0.013604,0.042593,-0.992114701,-0.082002449,-0.154858571,-0.549899,-0.114788,0.353828,1016.546753
1114748,0.462954,0.011544,0.025469,-0.998026728,-0.091596327,-0.153972245,-0.545969,-0.113999,0.356879,1016.546753
1114848,0.470515,-0.004128,0.01438,-1,-0.10132,-0.147303061,-0.547383,-0.110794,0.353033,1016.546753
1114948,0.465501,-0.024842,0.006208,-0.998026728,-0.105061224,-0.140720918,-0.550411,-0.111839,0.35498,1016.546753
1115048,0.463283,-0.036627,-0.001815,-0.992114701,-0.111400102,-0.139333673,-0.545929,-0.10745,0.35571,1016.546753
1115148,0.471164,-0.039586,-0.00586,-0.982287251,-0.113190918,-0.128863163,-0.547434,-0.108447,0.356159,1016.546753
1115248,0.475477,-0.025192,-0.011492,-0.968583161,-0.11233898,-0.130512857,-0.548942,-0.105482,0.35731,1016.546753
1115348,0.470688,-0.004468,-0.017196,-0.951056516,-0.113311429,-0.136070612,-0.549967,-0.10058,0.359563,1016.546753
1115448,0.450236,-0.000825,-0.020786,-0.929776486,-0.104127245,-0.132998673,-0.550924,-0.099472,0.357614,1016.546753
1115548,0.422561,-0.002875,-0.023876,-0.904827052,-0.092535612,-0.13027551,-0.549934,-0.097518,0.358216,1016.546753
1115648,0.400179,-0.011487,-0.030075,-0.87630668,-0.081428571,-0.118309796,-0.548939,-0.093572,0.35892,1016.546753
1115748,0.375396,-0.021228,-0.030958,-0.844327926,-0.067955714,-0.112052245,-0.548437,-0.091089,0.359047,1016.546753
1115848,0.355525,-0.038277,-0.037218,-0.809016994,-0.059042347,-0.11177602,-0.546941,-0.090117,0.359098,1016.546753
1115948,0.343572,-0.057522,-0.040148,-0.770513243,-0.055278469,-0.111554184,-0.546443,-0.090124,0.359098,1016.546753
1116048,0.335553,-0.080584,-0.044902,-0.728968627,-0.056164796,-0.112865612,-0.545963,-0.084724,0.360877,1016.546753
1116148,0.335253,-0.093645,-0.047764,-0.684547106,-0.063257755,-0.110615204,-0.545011,-0.083864,0.363427,1016.548523
1116248,0.335541,-0.101501,-0.050622,-0.63742399,-0.073161429,-0.110043367,-0.544549,-0.082972,0.365478,1016.548523
1116348,0.329777,-0.111215,-0.052582,-0.587785252,-0.080833469,-0.107810918,-0.542025,-0.079949,0.364131,1016.548523
1116448,0.318358,-0.112704,-0.050581,-0.535826795,-0.087582143,-0.106075612,-0.540592,-0.078149,0.367732,1016.548523
1116548,0.311869,-0.108831,-0.046712,-0.481753674,-0.095193367,-0.109261429,-0.540508,-0.077434,0.363259,1016.548523
1116648,0.301585,-0.110649,-0.041834,-0.425779292,-0.097599898,-0.116972857,-0.537052,-0.074098,0.365438,1016.548523
1116748,0.29067,-0.110669,-0.036098,-0.368124553,-0.09251898,-0.12275,-0.539074,-0.075135,0.366885,1016.548523
1116848,0.278153,-0.096045,-0.02961,-0.309016994,-0.091497755,-0.127030102,-0.535608,-0.071277,0.368589,1016.548523
1116948,0.263568,-0.075031,-0.024179,-0.248689887,-0.090337449,-0.131494592,-0.538071,-0.071663,0.367064,1016.548523
1117048,0.248534,-0.064155,-0.01823,-0.187381315,-0.089697143,-0.141742653,-0.534598,-0.068777,0.368217,1016.548523
1117148,0.236713,-0.066505,-0.01439,-0.125333234,-0.088996735,-0.145018163,-0.537071,-0.069188,0.367191,1016.548523
1117248,0.226763,-0.071169,-0.012497,-0.06279052,-0.091086735,-0.141027653,-0.534136,-0.068383,0.370241,1016.548523
1117348,0.212335,-0.072785,-0.009481,-1.22465E-15,-0.095495408,-0.137858571,-0.531663,-0.067973,0.371267,1016.548523
1117448,0.198899,-0.072032,-0.007304,0.06279052,-0.100421939,-0.136036735,-0.531632,-0.065907,0.369869,1016.548523
1117548,0.202803,-0.05823,-0.00817,0.125333234,-0.097332143,-0.144200714,-0.531671,-0.067,0.371818,1016.548523
1117648,0.197702,-0.053488,-0.012677,0.187381315,-0.093615204,-0.145559796,-0.532664,-0.06549,0.371894,1016.548523
1117748,0.177798,-0.059679,-0.015154,0.248689887,-0.093093061,-0.14738602,-0.531637,-0.063441,0.370496,1016.548523
1117848,0.161557,-0.043898,-0.018781,0.309016994,-0.092388878,-0.14018949,-0.531636,-0.062942,0.370522,1016.548523
1117948,0.145449,-0.026511,-0.017392,0.368124553,-0.089067245,-0.137942653,-0.530714,-0.063151,0.37452,1016.548523
1118048,0.129654,-0.030152,-0.013801,0.425779292,-0.081265714,-0.139355102,-0.530696,-0.063601,0.373495,1016.548523
1118148,0.13048,-0.039076,-0.011197,0.481753674,-0.077877143,-0.125136939,-0.531223,-0.063665,0.374995,1016.548523
1118248,0.134479,-0.020485,-0.010931,0.535826795,-0.078658571,-0.121537449,-0.528733,-0.064701,0.374945,1016.548523
1118348,0.136712,0.008229,-0.010141,0.587785252,-0.085716939,-0.122365204,-0.528241,-0.06274,0.375546,1016.548523
1118448,0.140266,0.030818,-0.008105,0.63742399,-0.087797857,-0.118785408,-0.529198,-0.061133,0.373623,1016.548523
1118548,0.132512,0.058555,-0.006893,0.684547106,-0.084967143,-0.107121122,-0.530672,-0.060065,0.372674,1016.548523
1118648,0.120495,0.073561,-0.005814,0.728968627,-0.087211633,-0.09922051,-0.52922,-0.058216,0.375275,1016.548523
1118748,0.099287,0.074445,-0.004711,0.770513243,-0.086007653,-0.093933776,-0.530689,-0.059615,0.373698,1016.548523
1118848,0.083691,0.070449,-0.003531,0.809016994,-0.084506735,-0.08887602,-0.530676,-0.057598,0.3733,1016.548523
1118948,0.070138,0.076735,-0.003739,0.844327926,-0.083726224,-0.089165612,-0.529715,-0.056216,0.375376,1016.548523
1119048,0.053403,0.088245,-0.005887,0.87630668,-0.082329286,-0.095954184,-0.530198,-0.058152,0.374275,1016.548523
1119148,0.037318,0.091108,-0.006623,0.904827052,-0.082142857,-0.101746735,-0.528729,-0.057252,0.375825,1016.548523
1119248,0.024939,0.092279,-0.010313,0.929776486,-0.079262551,-0.106384388,-0.529207,-0.055701,0.374902,1016.548523
1119348,0.012417,0.090175,-0.012644,0.951056516,-0.076499694,-0.10496398,-0.530702,-0.056176,0.374876,1016.548523
1119448,0.002796,0.082926,-0.016723,0.968583161,-0.078332245,-0.099546429,-0.528684,-0.05763,0.373301,1016.544495
1119548,-0.008367,0.073696,-0.01953,0.982287251,-0.078827959,-0.091314592,-0.530722,-0.05722,0.375825,1016.544495
1119648,-0.013947,0.065305,-0.021383,0.992114701,-0.082882347,-0.083256122,-0.529193,-0.053186,0.374529,1016.544495
1119748,-0.01728,0.056367,-0.02229,0.998026728,-0.088363469,-0.091449082,-0.528183,-0.056143,0.373377,1016.544495
1119848,-0.005269,0.040041,-0.024007,1,-0.097679592,-0.110099388,-0.528157,-0.057067,0.371827,1016.544495
1119948,0.012507,-0.001293,-0.021003,0.998026728,-0.10054449,-0.118172959,-0.527666,-0.055604,0.372403,1016.544495
1120048,0.019248,-0.03937,-0.018759,0.992114701,-0.10961898,-0.11854949,-0.528165,-0.056095,0.372378,1016.544495
1120148,0.025248,-0.071039,-0.018526,0.982287251,-0.114162347,-0.122806633,-0.526222,-0.05824,0.374776,1016.544495
1120248,0.032344,-0.102631,-0.014798,0.968583161,-0.113186327,-0.123450714,-0.526238,-0.056793,0.375852,1016.544495
1120348,0.043797,-0.124689,-0.011473,0.951056516,-0.103316939,-0.119821429,-0.525696,-0.058175,0.373276,1016.544495
1120448,0.055931,-0.137228,-0.010637,0.929776486,-0.098770918,-0.111672449,-0.523293,-0.060424,0.377674,1016.544495
1120548,0.069152,-0.136271,-0.016987,0.904827052,-0.08953449,-0.10571602,-0.524257,-0.057845,0.376301,1016.544495
1120648,0.084869,-0.131413,-0.024429,0.87630668,-0.083612143,-0.109498265,-0.522827,-0.057539,0.379826,1016.544495
1120748,0.095304,-0.130076,-0.034154,0.844327926,-0.08245602,-0.114429796,-0.52084,-0.06056,0.379674,1016.544495
1120848,0.099432,-0.128224,-0.045137,0.809016994,-0.082960306,-0.117647755,-0.521301,-0.060954,0.377649,1016.544495
1120948,0.098686,-0.129118,-0.055047,0.770513243,-0.087548265,-0.121275,-0.522335,-0.061035,0.379648,1016.544495
1121048,0.095315,-0.132088,-0.058843,0.728968627,-0.095983265,-0.121862857,-0.521866,-0.061613,0.381122,1016.546204
1121148,0.091773,-0.133252,-0.06026,0.684547106,-0.10265449,-0.120578878,-0.520416,-0.060761,0.383672,1016.546204
1121248,0.089892,-0.132593,-0.056643,0.63742399,-0.104186531,-0.118147143,-0.519938,-0.061813,0.384621,1016.546204
1121348,0.092075,-0.131955,-0.053918,0.587785252,-0.10255551,-0.117288469,-0.517939,-0.063316,0.384046,1016.546204
1121448,0.088356,-0.124906,-0.058181,0.535826795,-0.096290204,-0.112329082,-0.517945,-0.061347,0.384647,1016.546204
1121548,0.080931,-0.115378,-0.060632,0.481753674,-0.092972857,-0.108129184,-0.51799,-0.060471,0.387197,1016.546204
1121648,0.072467,-0.098056,-0.062704,0.425779292,-0.08381449,-0.100942755,-0.517544,-0.064087,0.389518,1016.546204
1121748,0.069407,-0.082771,-0.071565,0.368124553,-0.078894694,-0.101537347,-0.518013,-0.06301,0.38807,1016.546204
1121848,0.065738,-0.064821,-0.079647,0.309016994,-0.073831224,-0.103067245,-0.516571,-0.061185,0.391171,1016.546204
1121948,0.06126,-0.045628,-0.087667,0.248689887,-0.074730612,-0.105152245,-0.517039,-0.060109,0.389722,1016.546204
1122048,0.05185,-0.034564,-0.094744,0.187381315,-0.078511837,-0.110462755,-0.515594,-0.061748,0.392145,1016.546204
1122148,0.036993,-0.026681,-0.099885,0.125333234,-0.080954082,-0.112022959,-0.518572,-0.06068,0.391695,1016.546204
1122248,0.023761,-0.020296,-0.100898,0.06279052,-0.084261122,-0.110169388,-0.515621,-0.061321,0.39367,1016.546204
1122348,0.020521,-0.002588,-0.094169,-2.2056E-15,-0.083764286,-0.115583265,-0.517096,-0.060752,0.392695,1016.546204
1122448,0.017766,0.010053,-0.093772,-0.06279052,-0.072142653,-0.11855551,-0.517162,-0.061418,0.396169,1016.546204
1122548,0.00887,0.010506,-0.089292,-0.125333234,-0.066423265,-0.117097857,-0.517623,-0.061812,0.394144,1016.546204
1122648,-0.01078,0.009747,-0.094393,-0.187381315,-0.063955408,-0.111491122,-0.515139,-0.059883,0.394746,1016.547974
1122748,-0.030362,0.018854,-0.096923,-0.248689887,-0.066091633,-0.101994694,-0.518619,-0.061298,0.394169,1016.547974
1122848,-0.046405,0.032388,-0.09601,-0.309016994,-0.068947755,-0.096182653,-0.51516,-0.061426,0.395669,1016.547974
1122948,-0.055742,0.033305,-0.099834,-0.368124553,-0.065146122,-0.088693163,-0.516722,-0.063066,0.399091,1016.547974
1123048,-0.06495,0.051288,-0.102754,-0.425779292,-0.061083776,-0.100141429,-0.517212,-0.063532,0.398566,1016.547974
1123148,-0.068254,0.068422,-0.10666,-0.481753674,-0.060146122,-0.108740408,-0.518706,-0.063508,0.398566,1016.547974
1123248,-0.074879,0.081307,-0.111718,-0.535826795,-0.053539082,-0.113199082,-0.521692,-0.061966,0.398641,1016.547974
1123348,-0.084534,0.0974,-0.113651,-0.587785252,-0.046398061,-0.111775408,-0.52121,-0.060527,0.399717,1016.547974
1123448,-0.098814,0.104955,-0.117716,-0.63742399,-0.041573469,-0.110595408,-0.519728,-0.06207,0.400141,1016.547974
1123548,-0.115415,0.111325,-0.120834,-0.684547106,-0.035313265,-0.103359082,-0.522194,-0.063951,0.398539,1016.547974
1123648,-0.127766,0.125365,-0.124071,-0.728968627,-0.034372755,-0.096941224,-0.52271,-0.063493,0.399564,1016.547974
1123748,-0.137031,0.142325,-0.127677,-0.770513243,-0.030924796,-0.092975816,-0.522709,-0.062995,0.399589,1016.547974
1123848,-0.141627,0.165288,-0.130162,-0.809016994,-0.02734398,-0.092997755,-0.522716,-0.06698,0.399386,1016.547974
1123948,-0.1423,0.179322,-0.131268,-0.844327926,-0.027048163,-0.095211224,-0.525705,-0.066933,0.399385,1016.547974
1124048,-0.1347,0.192798,-0.133783,-0.87630668,-0.02609102,-0.097991429,-0.528708,-0.064443,0.400511,1016.547974
1124148,-0.121335,0.198344,-0.135185,-0.904827052,-0.026116735,-0.100566939,-0.528239,-0.065519,0.40196,1016.547974
1124248,-0.113363,0.199691,-0.133065,-0.929776486,-0.030511633,-0.101436327,-0.529699,-0.066894,0.399884,1016.547974
1124348,-0.109129,0.20677,-0.126066,-0.951056516,-0.034405102,-0.100370612,-0.534141,-0.064235,0.39801,1016.547974
1124448,-0.11098,0.214634,-0.115968,-0.968583161,-0.028646327,-0.101273265,-0.531199,-0.064902,0.400485,1016.547974
1124548,-0.121476,0.217505,-0.101597,-0.982287251,-0.016519592,-0.101348163,-0.534143,-0.06573,0.397934,1016.547974
1124648,-0.141828,0.228545,-0.089195,-0.992114701,0.003553878,-0.104213367,-0.535641,-0.067699,0.397832,1016.547974
1124748,-0.162984,0.217344,-0.076761,-0.998026728,0.027219796,-0.096211122,-0.536592,-0.068559,0.395282,1016.547974
1124848,-0.187549,0.214799,-0.068693,-1,0.047919184,-0.092574694,-0.539621,-0.064647,0.397983,1016.547974
1124948,-0.196217,0.202991,-0.070584,-0.998026728,0.055556735,-0.10191102,-0.542116,-0.067098,0.397855,1016.547974
1125048,-0.19407,0.183982,-0.075373,-0.992114701,0.058637143,-0.099151429,-0.541574,-0.06848,0.39528,1016.547974
1125148,-0.174923,0.170383,-0.082148,-0.982287251,0.04915051,-0.083604592,-0.543031,-0.06836,0.393281,1016.547974
1125248,-0.150554,0.16604,-0.089937,-0.968583161,0.035112449,-0.066195714,-0.547058,-0.071383,0.395126,1016.547974
1125348,-0.138061,0.181719,-0.094348,-0.951056516,0.02513898,-0.047368469,-0.546085,-0.068481,0.396778,1016.547974
1125448,-0.133371,0.194107,-0.091057,-0.929776486,0.022975918,-0.052177041,-0.549029,-0.06931,0.394228,1016.547974
1125548,-0.143965,0.210128,-0.084622,-0.904827052,0.027311429,-0.062148776,-0.547473,-0.071656,0.390602,1016.547974
1125648,-0.152723,0.204812,-0.074607,-0.87630668,0.028600714,-0.076695,-0.550461,-0.070613,0.390652,1016.547974
1125748,-0.161491,0.184487,-0.064563,-0.844327926,0.031565306,-0.081543367,-0.551477,-0.071641,0.391601,1016.547974
1125848,-0.168789,0.163233,-0.057865,-0.809016994,0.040281224,-0.078660612,-0.550934,-0.072526,0.389051,1016.547974
1125948,-0.170509,0.130431,-0.053476,-0.770513243,0.029364286,-0.075401327,-0.554409,-0.070951,0.388626,1016.545593
1126048,-0.170712,0.099452,-0.049683,-0.728968627,0.03006449,-0.070278469,-0.550963,-0.073096,0.390525,1016.545593
1126148,-0.169219,0.085217,-0.049058,-0.684547106,0.034531939,-0.055835612,-0.555435,-0.077461,0.389295,1016.545593
1126248,-0.165815,0.089674,-0.047984,-0.63742399,0.036906429,-0.044278163,-0.553406,-0.077396,0.387297,1016.545593
1126348,-0.164003,0.102128,-0.041651,-0.587785252,0.038700306,-0.042096633,-0.555345,-0.078714,0.384221,1016.545593
1126448,-0.160475,0.107597,-0.03813,-0.535826795,0.042066735,-0.049725306,-0.555873,-0.079775,0.385669,1016.545593
1126548,-0.155837,0.097638,-0.029035,-0.481753674,0.042545714,-0.053756327,-0.554887,-0.080313,0.386144,1016.545593
1126648,-0.142587,0.083622,-0.017696,-0.425779292,0.047306224,-0.061626531,-0.556333,-0.079173,0.383696,1016.545593
1126748,-0.128345,0.065492,-0.005194,-0.368124553,0.046685408,-0.070553878,-0.556864,-0.082227,0.385042,1016.545593
1126848,-0.106823,0.044366,0.006245,-0.309016994,0.040160204,-0.077937857,-0.554291,-0.082547,0.380519,1016.545593
1126948,-0.089801,0.021232,0.013075,-0.248689887,0.028710714,-0.083234184,-0.558344,-0.084646,0.383915,1016.545593
1127048,-0.082204,-0.01168,0.019501,-0.187381315,0.008961633,-0.083408367,-0.552855,-0.08421,0.383442,1016.545593
1127148,-0.066577,-0.035064,0.025563,-0.125333234,-0.009080714,-0.080548469,-0.554847,-0.084178,0.383442,1016.545593
1127248,-0.027786,-0.044259,0.035854,-0.06279052,-0.014552041,-0.073372449,-0.552344,-0.082201,0.383045,1016.545593
1127348,-0.008542,-0.063547,0.043229,-1.46958E-15,-0.01187051,-0.060279898,-0.553844,-0.085665,0.382866,1016.545593
1127448,0.005344,-0.073022,0.05267,0.06279052,-0.007564286,-0.048291939,-0.552847,-0.085183,0.382892,1016.545593
1127548,0.011836,-0.056736,0.056274,0.125333234,0.001404184,-0.035234592,-0.551346,-0.086677,0.382316,1016.543884
1127648,-0.008209,-0.037323,0.064109,0.187381315,0.014685102,-0.036104898,-0.550329,-0.08515,0.381393,1016.543884
1127748,-0.026184,-0.035362,0.070035,0.248689887,0.029909388,-0.051757653,-0.549808,-0.088075,0.379742,1016.543884
1127848,-0.032708,-0.03802,0.072511,0.309016994,0.047892245,-0.066300102,-0.549853,-0.087199,0.382291,1016.543884
1127948,-0.027863,-0.037118,0.071471,0.368124553,0.059420204,-0.084704694,-0.550321,-0.086122,0.380843,1016.543884
1128048,-0.006949,-0.050723,0.061816,0.425779292,0.057877551,-0.100678265,-0.547832,-0.087158,0.380793,1016.543884
1128148,0.017009,-0.064784,0.052596,0.481753674,0.043947143,-0.113356633,-0.549854,-0.088195,0.382241,1016.543884
1128248,0.037477,-0.101047,0.043241,0.535826795,0.023856531,-0.122165306,-0.547351,-0.086218,0.381843,1016.543884
1128348,0.04989,-0.143038,0.036113,0.587785252,-0.000624694,-0.118329592,-0.546855,-0.087222,0.381793,1016.543884
1128448,0.048714,-0.169629,0.034655,0.63742399,-0.021575816,-0.098076633,-0.546885,-0.088789,0.383216,1016.543884
1128548,0.045234,-0.177858,0.036044,0.684547106,-0.033616224,-0.087526429,-0.544439,-0.087455,0.385792,1016.543884
1128648,0.046714,-0.172946,0.041055,0.728968627,-0.037107245,-0.079784898,-0.543915,-0.088885,0.384216,1016.543884
1128748,0.042414,-0.159768,0.045037,0.770513243,-0.034502551,-0.078979694,-0.543423,-0.086924,0.384818,1016.543884
1128848,0.026772,-0.140736,0.054923,0.809016994,-0.031728061,-0.071408878,-0.540964,-0.089029,0.386216,1016.543884
1128948,-0.00725,-0.116565,0.06171,0.844327926,-0.024518469,-0.066835,-0.543984,-0.086088,0.388367,1016.543884
1129048,-0.04466,-0.092985,0.063058,0.87630668,-0.019055918,-0.063094898,-0.539944,-0.086505,0.385344,1016.543884
1129148,-0.081221,-0.076106,0.063759,0.904827052,-0.012641327,-0.062973367,-0.541951,-0.084031,0.38647,1016.545593
1129248,-0.105659,-0.069912,0.060025,0.929776486,-0.00606551,-0.062499796,-0.539466,-0.087059,0.386319,1016.545593
1129348,-0.115731,-0.072967,0.05107,0.951056516,-0.00638602,-0.066604286,-0.537999,-0.087156,0.387819,1016.545593
1129448,-0.118592,-0.072844,0.04396,0.968583161,-0.01451102,-0.07619,-0.53848,-0.082639,0.387547,1016.545593
1129548,-0.105153,-0.083128,0.037527,0.982287251,-0.018115,-0.085437245,-0.5395,-0.085163,0.388419,1016.545593
1129648,-0.096122,-0.088056,0.033369,0.992114701,-0.021989592,-0.087499694,-0.53703,-0.086745,0.389344,1016.545593
1129748,-0.08587,-0.084236,0.028433,0.998026728,-0.028686939,-0.091681327,-0.539473,-0.085589,0.386894,1016.545593
1129848,-0.07332,-0.088758,0.028405,1,-0.032994898,-0.099153776,-0.537488,-0.084648,0.387446,1016.545593
1129948,-0.060705,-0.095286,0.0273,0.998026728,-0.037361735,-0.101280612,-0.537032,-0.082285,0.390072,1016.545593
1130048,-0.051792,-0.100881,0.027453,0.992114701,-0.034484184,-0.099644898,-0.536026,-0.082277,0.389572,1016.545593
1130148,-0.052419,-0.102283,0.026845,0.982287251,-0.033951224,-0.101370816,-0.535017,-0.080276,0.389175,1016.545593
1130248,-0.058659,-0.097463,0.024881,0.968583161,-0.029701429,-0.104876327,-0.531586,-0.080476,0.392174,1016.545593
1130348,-0.071321,-0.089939,0.025227,0.951056516,-0.026974388,-0.106487959,-0.533628,-0.082557,0.394571,1016.545593
1130448,-0.085869,-0.075474,0.025035,0.929776486,-0.026609592,-0.102296122,-0.53557,-0.079914,0.392199,1016.545593
1130548,-0.092487,-0.061202,0.028645,0.904827052,-0.025916224,-0.100352143,-0.535038,-0.08132,0.390123,1016.545593
1130648,-0.093184,-0.051941,0.028857,0.87630668,-0.03078102,-0.105027449,-0.534988,-0.079705,0.387701,1016.545593
1130748,-0.08386,-0.049122,0.031222,0.844327926,-0.039667857,-0.102501224,-0.534568,-0.081899,0.391598,1016.545593
1130848,-0.067987,-0.04504,0.029971,0.809016994,-0.04677,-0.099627143,-0.536503,-0.080726,0.388649,1016.545593
1130948,-0.050369,-0.035649,0.026849,0.770513243,-0.054355,-0.098647041,-0.534564,-0.079906,0.391699,1016.545593
1131048,-0.039385,-0.02675,0.024501,0.728968627,-0.06099551,-0.097022041,-0.534564,-0.079408,0.391724,1016.545593
1131148,-0.034073,-0.018289,0.0225,0.684547106,-0.059132857,-0.098073061,-0.536038,-0.078838,0.39075,1016.545593
1131248,-0.03058,-0.004858,0.021536,0.63742399,-0.054485204,-0.098793469,-0.539551,-0.077858,0.392299,1016.545593
1131348,-0.026192,0.001444,0.020252,0.587785252,-0.048401429,-0.099646531,-0.539524,-0.077786,0.3908,1016.545593
1131448,-0.018574,0.010672,0.018853,0.535826795,-0.043637959,-0.100296735,-0.542528,-0.076292,0.391875,1016.545593
1131548,-0.013263,0.015481,0.018642,0.481753674,-0.042404286,-0.10229,-0.542509,-0.075745,0.3909,1016.545593
1131648,-0.00586,0.019427,0.021274,0.425779292,-0.044173367,-0.104264286,-0.541532,-0.076308,0.391875,1016.545593
1131748,-0.00108,0.031046,0.021852,0.368124553,-0.046800306,-0.100427143,-0.544529,-0.075786,0.392399,1016.545593
1131848,0.001695,0.042809,0.022933,0.309016994,-0.047975102,-0.096118571,-0.545044,-0.07483,0.393449,1016.545593
1131948,0.012487,0.057126,0.024885,0.248689887,-0.047093061,-0.095607653,-0.54402,-0.074774,0.39195,1016.545593
1132048,0.025435,0.077111,0.024195,0.187381315,-0.038014796,-0.098121429,-0.548014,-0.074734,0.392449,1016.545593
1132148,0.015833,0.072021,0.023867,0.125333234,-0.036025204,-0.096206327,-0.549014,-0.071753,0.393101,1016.545593
1132248,0.00702,0.066503,0.020225,0.06279052,-0.035475,-0.101291633,-0.547488,-0.069712,0.391704,1016.547302
1132348,0.005018,0.07505,0.020089,-1.96067E-15,-0.035945714,-0.094606837,-0.552483,-0.07165,0.3921,1016.547302
1132448,-0.001474,0.078864,0.023771,-0.06279052,-0.033991837,-0.104827143,-0.551952,-0.069094,0.390728,1016.547302
1132548,0.001776,0.058741,0.028423,-0.125333234,-0.034655306,-0.109076735,-0.555477,-0.069633,0.392701,1016.547302
1132648,0.01207,0.054363,0.031788,-0.187381315,-0.035558469,-0.106996122,-0.555474,-0.067641,0.392802,1016.547302
1132748,0.023307,0.056843,0.031046,-0.248689887,-0.037483367,-0.108968265,-0.55992,-0.067473,0.390801,1016.547302
1132848,0.034585,0.062534,0.030221,-0.309016994,-0.039748776,-0.107352041,-0.558414,-0.066476,0.390353,1016.547302
1132948,0.041633,0.069856,0.026314,-0.368124553,-0.040377755,-0.100453776,-0.558956,-0.065094,0.392928,1016.547302
1133048,0.038559,0.06261,0.022832,-0.425779292,-0.041818571,-0.105564898,-0.561408,-0.06446,0.390953,1016.547302
1133148,0.029257,0.050136,0.021816,-0.481753674,-0.040856224,-0.098345408,-0.557917,-0.062024,0.391082,1016.547302
1133248,0.025848,0.047077,0.01928,-0.535826795,-0.035028367,-0.089457653,-0.559413,-0.062997,0.39103,1016.547302
1133348,0.021316,0.057765,0.015709,-0.587785252,-0.029761837,-0.089285612,-0.560896,-0.061455,0.390606,1016.547302
1133448,0.017589,0.068755,0.013337,-0.63742399,-0.024650612,-0.095452755,-0.560374,-0.058425,0.389759,1016.547302
1133548,0.011555,0.070452,0.012208,-0.684547106,-0.022456939,-0.099262449,-0.563848,-0.061809,0.388581,1016.547302
1133648,0.008206,0.06286,0.01273,-0.728968627,-0.026095,-0.101413776,-0.561855,-0.061342,0.388607,1016.547302
1133748,0.003703,0.058201,0.011581,-0.770513243,-0.030065816,-0.095977449,-0.564889,-0.060917,0.39113,1016.547302
1133848,-0.000392,0.051996,0.00821,-0.809016994,-0.032809796,-0.090890612,-0.561835,-0.060796,0.387633,1016.547302
1133948,-0.002649,0.046073,0.007726,-0.844327926,-0.036977551,-0.087831429,-0.562295,-0.060193,0.385659,1016.549011
1134048,0.001903,0.044212,0.005794,-0.87630668,-0.036681327,-0.089106224,-0.564342,-0.05931,0.388708,1016.549011
1134148,0.00475,0.042056,0.001148,-0.904827052,-0.033784694,-0.085788469,-0.562842,-0.061302,0.388107,1016.549011
1134248,0.003185,0.047437,-0.002546,-0.929776486,-0.035797143,-0.090133367,-0.56331,-0.060226,0.386658,1016.549011
1134348,0.008732,0.040619,-0.003471,-0.951056516,-0.032370714,-0.086844184,-0.561835,-0.060297,0.387658,1016.549011
1134448,0.011523,0.033779,-0.001074,-0.968583161,-0.030777959,-0.083071939,-0.56627,-0.059608,0.385183,1016.549011
1134548,0.016079,0.030227,-0.002225,-0.982287251,-0.031860816,-0.088150306,-0.564339,-0.057815,0.388784,1016.549011
1134648,0.017414,0.020169,-0.001833,-0.992114701,-0.033873367,-0.093572143,-0.563762,-0.060097,0.384159,1016.549011
1134748,0.021079,0.007454,-0.002678,-0.998026728,-0.036893367,-0.090549694,-0.561301,-0.061704,0.385583,1016.549011
1134848,0.032105,0.005726,-0.004399,-1,-0.038119898,-0.084720204,-0.559786,-0.060184,0.38466,1016.549011
1134948,0.042585,0.00805,-0.004841,-0.998026728,-0.037676327,-0.082224592,-0.559299,-0.061213,0.385109,1016.549011
1135048,0.048678,0.008923,-0.007284,-0.992114701,-0.03507602,-0.080813673,-0.561827,-0.06127,0.387108,1016.549011
1135148,0.05287,0.011282,-0.005915,-0.982287251,-0.033525714,-0.082764388,-0.560793,-0.06119,0.385108,1016.549011
1135248,0.058975,0.006383,-0.005973,-0.968583161,-0.030479796,-0.083767755,-0.561301,-0.061704,0.385583,1016.549011
1135348,0.069721,0.003736,-0.006051,-0.951056516,-0.031262245,-0.083501633,-0.560277,-0.061647,0.384084,1016.549011
1135448,0.080953,0.002693,-0.00563,-0.929776486,-0.030806531,-0.084364592,-0.560796,-0.062684,0.385032,1016.549011
1135548,0.090066,0.001318,-0.003803,-0.904827052,-0.031786224,-0.083748571,-0.560829,-0.060289,0.387159,1016.550781
1135648,0.099249,0.002593,-0.001194,-0.87630668,-0.030178571,-0.081442551,-0.561283,-0.061656,0.384583,1016.550781
1135748,0.10562,0.005987,0.001574,-0.844327926,-0.028248367,-0.07961449,-0.559796,-0.060707,0.385134,1016.550781
1135848,0.108196,0.007164,0.006322,-0.809016994,-0.027840816,-0.081259796,-0.558293,-0.061205,0.384609,1016.550781
1135948,0.110796,0.010397,0.009685,-0.770513243,-0.024169388,-0.081499592,-0.556275,-0.06216,0.38306,1016.550781
1136048,0.117749,0.016143,0.0111,-0.728968627,-0.019552245,-0.080674184,-0.557723,-0.057058,0.381314,1016.550781
1136148,0.126527,0.020354,0.013533,-0.684547106,-0.017900714,-0.081261429,-0.560308,-0.057758,0.386286,1016.550781
1136248,0.135486,0.025337,0.013369,-0.63742399,-0.01462102,-0.077575102,-0.559278,-0.060168,0.38416,1016.550781
1136348,0.140888,0.023513,0.01177,-0.587785252,-0.010202653,-0.075717449,-0.558766,-0.057163,0.383813,1016.550781
1136448,0.141336,0.023614,0.012889,-0.535826795,-0.005613571,-0.072405306,-0.557753,-0.058127,0.382763,1016.550781
1136548,0.139739,0.023707,0.011764,-0.481753674,-0.003338367,-0.073076633,-0.557742,-0.057106,0.382314,1016.550781
1136648,0.133619,0.021554,0.01282,-0.425779292,-0.007248265,-0.069886939,-0.557266,-0.054197,0.383966,1016.550781
1136748,0.147024,0.028356,0.014351,-0.368124553,-0.005658265,-0.075029184,-0.556768,-0.054205,0.383966,1016.550781
1136848,0.163454,0.046146,0.014108,-0.309016994,-0.002690204,-0.081435102,-0.555743,-0.05365,0.382492,1016.550781
1136948,0.158718,0.030037,0.017442,-0.248689887,-0.009406735,-0.079649796,-0.557281,-0.052253,0.385067,1016.550781
1137048,0.14877,0.011473,0.017694,-0.187381315,-0.014599286,-0.070084082,-0.557278,-0.050758,0.385143,1016.550781
1137148,0.139161,0.007838,0.021431,-0.125333234,-0.020543367,-0.058569082,-0.556238,-0.05165,0.382594,1016.550781
1137248,0.129682,0.01928,0.026291,-0.06279052,-0.017239592,-0.056119286,-0.559732,-0.050622,0.383143,1016.550781
1137348,0.135571,0.019093,0.033124,5.39092E-15,-0.009457245,-0.067649796,-0.556267,-0.047262,0.384822,1016.550781
1137448,0.138375,0.025795,0.03477,0.06279052,-0.004633061,-0.084956122,-0.554756,-0.048234,0.383772,1016.550781
1137548,0.139868,0.021708,0.037181,0.125333234,-0.005149796,-0.087591633,-0.555201,-0.049576,0.380696,1016.550781
1137648,0.148228,0.019089,0.03536,0.187381315,-0.00790551,-0.083879388,-0.554724,-0.046169,0.382374,1016.550781
1137748,0.15444,0.013541,0.032874,0.248689887,-0.007079184,-0.077350714,-0.557736,-0.043204,0.384025,1016.550781
1137848,0.156054,-0.003968,0.028628,0.309016994,-0.003554694,-0.077342347,-0.556708,-0.046611,0.381848,1016.550781
1137948,0.147236,-0.024522,0.023029,0.368124553,-0.006984592,-0.074018673,-0.556232,-0.043204,0.383526,1016.550781
1138048,0.138481,-0.03984,0.017669,0.425779292,-0.009488061,-0.069356122,-0.555725,-0.043188,0.383026,1016.550781
1138148,0.134317,-0.04123,0.014449,0.481753674,-0.011789286,-0.067515306,-0.556259,-0.042778,0.38505,1016.550781
1138248,0.133756,-0.032419,0.009763,0.535826795,-0.016004286,-0.066213469,-0.551738,-0.042254,0.383078,1016.550781
1138348,0.135823,-0.013397,0.006651,0.587785252,-0.020965408,-0.072544184,-0.554719,-0.043179,0.382526,1016.550781
1138448,0.137041,-0.000118,0.003379,0.63742399,-0.029260204,-0.077787143,-0.556201,-0.041637,0.382102,1016.550781
1138548,0.142839,0.001686,8.30E-05,0.684547106,-0.037586633,-0.07915398,-0.554687,-0.040616,0.381154,1016.550781
1138648,0.146225,-0.003414,-0.006305,0.728968627,-0.04451602,-0.079775714,-0.55122,-0.041716,0.382104,1016.550781
1138748,0.149913,-0.021376,-0.008595,0.770513243,-0.056194388,-0.073873878,-0.552681,-0.03863,0.380756,1016.548523
1138848,0.150001,-0.036617,-0.012464,0.809016994,-0.067478163,-0.06590898,-0.552241,-0.039779,0.383704,1016.548523
1138948,0.142685,-0.042943,-0.008819,0.844327926,-0.079376224,-0.054363367,-0.552222,-0.039731,0.382705,1016.548523
1139048,0.131418,-0.032829,-0.006611,0.87630668,-0.088802245,-0.052930408,-0.552694,-0.040648,0.381154,1016.548523
1139148,0.125887,-0.023643,0.000481,0.904827052,-0.091113061,-0.044895816,-0.548677,-0.038147,0.379783,1016.548523
1139248,0.1162,0.002491,0.005231,0.929776486,-0.091261327,-0.039253673,-0.550697,-0.038188,0.381282,1016.548523
1139348,0.105912,0.045083,0.001863,0.951056516,-0.095697143,-0.035005204,-0.550173,-0.03912,0.379732,1016.548523
1139448,0.104486,0.094344,-0.001633,0.968583161,-0.099011224,-0.034457653,-0.550639,-0.042005,0.37758,1016.548523
1139548,0.108867,0.13821,-0.006251,0.982287251,-0.106158776,-0.038065612,-0.551152,-0.040053,0.378681,1016.548523
1139648,0.111656,0.169027,-0.013435,0.992114701,-0.10704898,-0.032860102,-0.548563,-0.04182,0.373083,1016.548523
1139748,0.109763,0.187978,-0.022059,0.998026728,-0.104223061,-0.025321939,-0.551081,-0.041853,0.374581,1016.548523
1139848,0.106896,0.195888,-0.02894,1,-0.091081122,-0.015225918,-0.551578,-0.041347,0.374607,1016.548523
1139948,0.104363,0.200824,-0.03609,0.998026728,-0.074468571,-0.011445204,-0.552025,-0.043685,0.37148,1016.548523
1140048,0.104408,0.192093,-0.043604,0.992114701,-0.054752959,-0.009682755,-0.555011,-0.042143,0.371556,1016.548523
1140148,0.10904,0.175246,-0.051277,0.982287251,-0.040808571,-0.001717857,-0.553457,-0.039532,0.368685,1016.548523
1140248,0.120463,0.160663,-0.060043,0.968583161,-0.031741633,0.010092653,-0.554954,-0.041501,0.368582,1016.548523
1140348,0.132932,0.162918,-0.072569,0.951056516,-0.030796224,0.026562653,-0.555404,-0.040376,0.366134,1016.548523
1140448,0.150894,0.17458,-0.086061,0.929776486,-0.026519082,0.040811531,-0.556898,-0.039854,0.366159,1016.548523
1140548,0.151356,0.182428,-0.096979,0.904827052,-0.030211122,0.052318265,-0.558861,-0.039252,0.364684,1016.548523
1140648,0.149303,0.17276,-0.100587,0.87630668,-0.026855,0.052259184,-0.559882,-0.042274,0.365531,1016.548523
1140748,0.149443,0.1536,-0.101079,0.844327926,-0.028936531,0.05170551,-0.558319,-0.040136,0.362135,1016.548523
1140848,0.154894,0.126476,-0.10311,0.809016994,-0.02744449,0.046549286,-0.559801,-0.038594,0.361711,1016.548523
1140948,0.166543,0.104945,-0.105223,0.770513243,-0.031603469,0.042526327,-0.559803,-0.03959,0.36166,1016.548523
1141048,0.179653,0.081134,-0.1082,0.728968627,-0.036670612,0.036648878,-0.561322,-0.038144,0.363235,1016.548523
1141148,0.18989,0.057268,-0.106889,0.684547106,-0.046654184,0.028201735,-0.559832,-0.04016,0.363134,1016.548523
1141248,0.196258,0.015397,-0.099102,0.63742399,-0.05581,0.029247245,-0.563766,-0.037486,0.36076,1016.548523
1141348,0.19463,-0.021672,-0.090436,0.587785252,-0.061555918,0.035294388,-0.559828,-0.038167,0.363235,1016.548523
1141448,0.188846,-0.049498,-0.078543,0.535826795,-0.071756429,0.039823163,-0.558348,-0.035748,0.364363,1016.548523
1141548,0.186808,-0.072651,-0.063937,0.481753674,-0.079905,0.042651837,-0.560809,-0.040096,0.362134,1016.548523
1141648,0.202606,-0.076086,-0.045537,0.425779292,-0.081402959,0.034528469,-0.560328,-0.039156,0.363184,1016.548523
1141748,0.204835,-0.076003,-0.039014,0.368124553,-0.082467245,0.032834898,-0.558353,-0.038738,0.36421,1016.548523
1141848,0.19451,-0.086909,-0.029834,0.309016994,-0.079551735,0.040320816,-0.560363,-0.038256,0.365234,1016.548523
1141948,0.18387,-0.077685,-0.028761,0.248689887,-0.078129286,0.049381122,-0.555923,-0.041413,0.367083,1016.548523
1142048,0.17744,-0.06677,-0.024125,0.187381315,-0.075976837,0.050235612,-0.557904,-0.04036,0.366633,1016.548523
1142148,0.173657,-0.065345,-0.020006,0.125333234,-0.065889184,0.046932653,-0.556873,-0.041775,0.364558,1016.548523
1142248,0.180789,-0.077952,-0.016582,0.06279052,-0.05938449,0.030449286,-0.55283,-0.040199,0.361637,1016.548523
1142348,0.186829,-0.089851,-0.020031,5.38968E-15,-0.063472551,0.02311051,-0.554908,-0.04138,0.366083,1016.548523
1142448,0.204293,-0.109969,-0.024304,-0.06279052,-0.060946633,0.0207,-0.556884,-0.042297,0.365032,1016.548523
1142548,0.227338,-0.138959,-0.029906,-0.125333234,-0.059855714,0.029496735,-0.554448,-0.041983,0.368057,1016.548523
1142648,0.242048,-0.159835,-0.036107,-0.187381315,-0.054697551,0.045162959,-0.554441,-0.043453,0.367481,1016.548523
1142748,0.245782,-0.177182,-0.042358,-0.248689887,-0.043465714,0.063541429,-0.553991,-0.04408,0.369955,1016.548523
1142848,0.237923,-0.179432,-0.052115,-0.309016994,-0.032998061,0.078331531,-0.551013,-0.04019,0.371159,1016.548523
1142948,0.228856,-0.167582,-0.056725,-0.368124553,-0.018690816,0.080163571,-0.553517,-0.042167,0.371556,1016.548523
1143048,0.198725,-0.148102,-0.066165,-0.425779292,-0.009309082,0.078936429,-0.553556,-0.04326,0.373505,1016.548523
1143148,0.170962,-0.128216,-0.07714,-0.481753674,0.001337143,0.072055102,-0.552086,-0.046321,0.374352,1016.548523
1143248,0.14572,-0.111374,-0.095373,-0.535826795,0.012121633,0.067514082,-0.549121,-0.044448,0.375954,1016.548523
1143348,0.125475,-0.09976,-0.112573,-0.587785252,0.013064796,0.063017143,-0.548588,-0.045356,0.373904,1016.548523
1143448,0.101023,-0.116264,-0.129268,-0.63742399,0.010481837,0.049023776,-0.545122,-0.046954,0.374829,1016.548523
1143548,0.071879,-0.147351,-0.143458,-0.684547106,0.004979388,0.051230204,-0.543161,-0.049051,0.376227,1016.548523
1143648,0.058382,-0.161541,-0.1518,-0.728968627,-0.003804694,0.064035408,-0.542636,-0.049485,0.374702,1016.548523
1143748,0.040353,-0.163373,-0.157655,-0.770513243,-0.00991898,0.074665204,-0.541684,-0.053583,0.376499,1016.548523
1143848,0.021297,-0.15802,-0.166518,-0.809016994,-0.009618469,0.06989449,-0.541687,-0.055077,0.376423,1016.548523
1143948,0.012144,-0.141782,-0.172235,-0.844327926,-0.007853367,0.068843061,-0.53621,-0.056659,0.376348,1016.548523
1144048,0.00025,-0.132043,-0.176211,-0.87630668,-0.002308061,0.070521531,-0.535698,-0.059608,0.375196,1016.548523
1144148,-0.009607,-0.125834,-0.18177,-0.904827052,-0.001991837,0.068301939,-0.537223,-0.061152,0.376619,1016.548523
1144248,-0.025021,-0.120325,-0.191389,-0.929776486,0.007590612,0.078832551,-0.531301,-0.065851,0.378891,1016.548523
1144348,-0.048433,-0.113199,-0.199172,-0.951056516,0.012676939,0.09550102,-0.528274,-0.065304,0.376918,1016.548523
1144448,-0.076149,-0.096666,-0.203638,-0.968583161,0.018731224,0.108244898,-0.530282,-0.068784,0.37724,1016.548523
1144548,-0.101082,-0.073024,-0.209191,-0.982287251,0.030192755,0.121872143,-0.526302,-0.071836,0.377089,1016.548523
1144648,-0.123259,-0.048484,-0.220368,-0.992114701,0.038218776,0.125738469,-0.525778,-0.072768,0.375538,1016.548523
1144748,-0.140396,-0.028365,-0.229836,-0.998026728,0.038194184,0.123884694,-0.524784,-0.079237,0.374709,1016.548523
1144848,-0.157663,-0.007358,-0.238134,-1,0.031756939,0.123377143,-0.520805,-0.07783,0.375286,1016.548523
1144948,-0.169672,0.01127,-0.244677,-0.998026728,0.015603163,0.117571122,-0.522258,-0.080177,0.37266,1016.548523
1145048,-0.167506,0.020242,-0.25339,-0.992114701,0.001068571,0.110940918,-0.518269,-0.083205,0.372008,1016.548523
1145148,-0.159163,0.038554,-0.253878,-0.982287251,-0.012958571,0.107773776,-0.516793,-0.088734,0.372229,1016.548523
1145248,-0.147913,0.067555,-0.255407,-0.968583161,-0.022111122,0.09398449,-0.51481,-0.088789,0.37273,1016.548523
1145348,-0.144592,0.08645,-0.250876,-0.951056516,-0.028786429,0.072689898,-0.515314,-0.092269,0.372552,1016.548523
1145448,-0.142986,0.078533,-0.237315,-0.929776486,-0.040111633,0.047327959,-0.511774,-0.093674,0.369478,1016.548523
1145548,-0.11328,0.058997,-0.218977,-0.904827052,-0.051735306,0.021830816,-0.513753,-0.096086,0.368351,1016.548523
1145648,-0.069223,0.033358,-0.199453,-0.87630668,-0.063197347,-0.002324592,-0.511771,-0.102096,0.368047,1016.548523
1145748,-0.029811,0.009075,-0.178754,-0.844327926,-0.070548673,-0.029443776,-0.513254,-0.101052,0.367597,1016.548523
1145848,-0.006254,-0.005568,-0.1563,-0.809016994,-0.075091327,-0.055941429,-0.511263,-0.107038,0.366793,1016.548523
1145948,0.009677,-0.017225,-0.134144,-0.770513243,-0.07089051,-0.083880612,-0.510269,-0.108549,0.366717,1016.548523
1146048,0.026854,-0.023276,-0.11062,-0.728968627,-0.066383265,-0.106091837,-0.509228,-0.109441,0.364167,1016.548523
1146148,0.056197,-0.031779,-0.092583,-0.684547106,-0.06152602,-0.128896633,-0.513319,-0.111635,0.369563,1016.548523
1146248,0.077794,-0.064072,-0.081049,-0.63742399,-0.056924184,-0.140770816,-0.512803,-0.112093,0.368537,1016.548523
1146348,0.079867,-0.091414,-0.072293,-0.587785252,-0.056132143,-0.12081949,-0.511794,-0.110092,0.36814,1016.548523
1146448,0.065101,-0.082862,-0.059365,-0.535826795,-0.053902347,-0.073821939,-0.513805,-0.115067,0.368385,1016.548523
1146548,0.052022,-0.039577,-0.044029,-0.481753674,-0.033715714,-0.045215306,-0.516241,-0.115879,0.365335,1016.548523
1146648,0.021162,0.013384,-0.033786,-0.425779292,0.000468673,-0.030876531,-0.517753,-0.114907,0.366385,1016.548523
1146748,-0.030357,0.058171,-0.020967,-0.368124553,0.028089286,-0.03756,-0.519737,-0.115848,0.365833,1016.548523
1146848,-0.079482,0.116072,-0.01553,-0.309016994,0.045371327,-0.049192041,-0.522642,-0.115584,0.361334,1016.548523
1146948,-0.130091,0.164166,-0.005725,-0.248689887,0.057948571,-0.077907041,-0.52667,-0.118606,0.36318,1016.548523
1147048,-0.173573,0.173718,0.005195,-0.187381315,0.073069694,-0.119189286,-0.529594,-0.118889,0.359654,1016.548523
1147148,-0.208233,0.158156,0.005364,-0.125333234,0.08022551,-0.16514051,-0.533068,-0.121774,0.358502,1016.548523
1147248,-0.233781,0.133649,-0.000294,-0.06279052,0.084266633,-0.204624694,-0.536999,-0.122563,0.355451,1016.548523
1147348,-0.259099,0.095893,-0.006169,-1.95943E-15,0.088098061,-0.233081531,-0.537987,-0.12352,0.3549,1016.548523
1147448,-0.284867,0.05668,-0.014113,0.06279052,0.098788265,-0.241968776,-0.539447,-0.124894,0.352824,1016.548523
1147548,-0.312412,0.029651,-0.022856,0.125333234,0.109759592,-0.240995204,-0.543956,-0.128857,0.353619,1016.548523
1147648,-0.347522,0.015344,-0.024209,0.187381315,0.119766735,-0.230377857,-0.541864,-0.130119,0.348045,1016.548523
1147748,-0.373607,0.023763,-0.024281,0.248689887,0.119813878,-0.225035204,-0.54334,-0.135503,0.346266,1016.548523
1147848,-0.390803,0.04185,-0.01584,0.309016994,0.107515918,-0.227520204,-0.544764,-0.137778,0.34214,1016.548523
1147948,-0.404257,0.058896,-0.007923,0.368124553,0.100583776,-0.231321633,-0.546278,-0.138301,0.343114,1016.548523
1148048,-0.417078,0.07949,-0.002796,0.425779292,0.092035102,-0.226876939,-0.545704,-0.142576,0.338387,1016.548523
1148148,-0.421371,0.106065,-0.005139,0.481753674,0.088944898,-0.222588673,-0.545664,-0.145943,0.33571,1016.548523
1148248,-0.420333,0.126167,-0.012674,0.535826795,0.099582551,-0.222274184,-0.547636,-0.150323,0.333982,1016.548523
1148348,-0.414857,0.130729,-0.030073,0.587785252,0.11056949,-0.215601939,-0.548091,-0.152188,0.331381,1016.548523
1148448,-0.407074,0.119557,-0.052588,0.63742399,0.11763,-0.205104184,-0.549502,-0.157404,0.326103,1016.548523
1148548,-0.383007,0.10332,-0.07756,0.684547106,0.115848673,-0.180199898,-0.549423,-0.159678,0.321478,1016.548523
1148648,-0.357389,0.092684,-0.096928,0.728968627,0.10762,-0.15259,-0.547399,-0.162603,0.319327,1016.548523
1148748,-0.351729,0.093444,-0.109305,0.770513243,0.090866327,-0.137369592,-0.553848,-0.163424,0.317774,1016.548523
1148848,-0.331511,0.092082,-0.109879,0.809016994,0.074959286,-0.108537857,-0.550785,-0.168736,0.312998,1016.548523
1148948,-0.32603,0.09474,-0.09779,0.844327926,0.069258367,-0.088520204,-0.553279,-0.170689,0.312895,1016.548523
1149048,-0.323881,0.096995,-0.084965,0.87630668,0.067253469,-0.070068673,-0.555207,-0.170489,0.309396,1016.548523
1149148,-0.336013,0.109294,-0.0708,0.904827052,0.073311122,-0.051125204,-0.553193,-0.174434,0.307694,1016.548523
1149248,-0.33478,0.121705,-0.061223,0.929776486,0.080928878,-0.038918469,-0.552656,-0.173349,0.305746,1016.548523
1149348,-0.323581,0.125085,-0.056169,0.951056516,0.085668367,-0.037928469,-0.552617,-0.177713,0.303018,1016.548523
1149448,-0.319962,0.110756,-0.044019,0.968583161,0.081713571,-0.049535918,-0.556009,-0.17642,0.29807,1016.548523
1149548,-0.313878,0.074638,-0.030193,0.982287251,0.074021633,-0.051740918,-0.553542,-0.178999,0.298943,1016.548523
1149648,-0.30779,0.04609,-0.013491,0.992114701,0.060044184,-0.046231429,-0.555489,-0.179843,0.296393,1016.548523
1149748,-0.298047,0.034535,0.003579,0.998026728,0.04981102,-0.03582398,-0.556931,-0.18117,0.293317,1016.548523
1149848,-0.27853,0.022929,0.022295,1,0.041336735,-0.033648571,-0.555917,-0.181636,0.292293,1016.548523
1149948,-0.26062,0.01474,0.041286,0.998026728,0.040334388,-0.02954602,-0.558387,-0.18551,0.290589,1016.548523
1150048,-0.245222,0.003243,0.060235,0.992114701,0.048058163,-0.022156531,-0.558337,-0.183895,0.288166,1016.548523
1150148,-0.228328,-0.001709,0.072297,0.982287251,0.060986633,-0.013694898,-0.559815,-0.185317,0.28709,1016.548523
1150248,-0.204761,-0.001989,0.081008,0.968583161,0.075598878,-0.012863571,-0.558307,-0.187784,0.285964,1016.548523
1150348,-0.176849,-0.012012,0.083551,0.951056516,0.083158061,-0.011756837,-0.562811,-0.189256,0.286886,1016.548523
1150448,-0.151698,-0.023892,0.088619,0.929776486,0.087050816,-0.016063265,-0.561761,-0.190124,0.283837,1016.548523
1150548,-0.131129,-0.038913,0.091646,0.904827052,0.093308163,-0.015888571,-0.565251,-0.192061,0.283734,1016.548523
1150648,-0.113674,-0.049876,0.091739,0.87630668,0.096236531,-0.008076837,-0.56274,-0.191056,0.282786,1016.548523
1150748,-0.088198,-0.044642,0.08888,0.844327926,0.100394796,-0.001306735,-0.564236,-0.19153,0.28276,1016.548523
1150848,-0.05321,-0.03291,0.089488,0.809016994,0.103056224,0.005790306,-0.565705,-0.192929,0.281184,1016.548523
1150948,-0.022403,-0.017984,0.087334,0.770513243,0.106258469,0.011588776,-0.567692,-0.189908,0.281336,1016.548523
1151048,-0.000576,-0.006014,0.087131,0.728968627,0.101755,0.014712857,-0.566183,-0.192375,0.280209,1016.548523
1151148,0.017043,-0.001771,0.087762,0.684547106,0.101001837,0.018559694,-0.567652,-0.193774,0.278633,1016.548523
1151248,0.043493,0.008423,0.087524,0.63742399,0.097358163,0.022083878,-0.56919,-0.191878,0.281234,1016.548523
1151348,0.069059,0.009271,0.090523,0.587785252,0.095600918,0.026096224,-0.570162,-0.188824,0.280386,1016.548523
1151448,0.101121,0.023981,0.096488,0.535826795,0.095697857,0.027268776,-0.569677,-0.190849,0.280784,1016.548523
1151548,0.118958,0.03976,0.099516,0.481753674,0.104873367,0.033446531,-0.570653,-0.189789,0.279835,1016.548523
1151648,0.10492,0.047162,0.107254,0.425779292,0.097817653,0.043661224,-0.572147,-0.189765,0.279835,1016.548523
1151748,0.101414,0.076592,0.11585,0.368124553,0.092691429,0.060383469,-0.57311,-0.186687,0.278487,1016.550232
1151848,0.088342,0.116853,0.126701,0.309016994,0.091908061,0.065961735,-0.574161,-0.186318,0.281512,1016.550232
1151948,0.077791,0.135972,0.142623,0.248689887,0.090710612,0.060591837,-0.575113,-0.187178,0.278961,1016.550232
1152048,0.086436,0.14406,0.152099,0.187381315,0.089740918,0.059892653,-0.576588,-0.18165,0.27874,1016.550232
1152148,0.100954,0.162802,0.164336,0.125333234,0.090373469,0.059748469,-0.577045,-0.184511,0.276089,1016.550232
1152248,0.113371,0.163245,0.178397,0.06279052,0.088416327,0.049869388,-0.578563,-0.182567,0.277689,1016.550232
1152348,0.117847,0.152021,0.186252,5.63461E-15,0.081548571,0.051123878,-0.579529,-0.180984,0.276266,1016.550232
1152448,0.122689,0.137841,0.192516,-0.06279052,0.073913469,0.056399694,-0.583011,-0.177939,0.276417,1016.550232
1152548,0.120711,0.117379,0.195483,-0.125333234,0.066082245,0.056632755,-0.584477,-0.177843,0.274917,1016.550232
1152648,0.109364,0.10073,0.200716,-0.187381315,0.061785918,0.062901633,-0.58594,-0.175754,0.273519,1016.550232
1152748,0.103826,0.097247,0.204169,-0.248689887,0.064537653,0.070358673,-0.588466,-0.174815,0.275568,1016.550232
1152848,0.089685,0.100902,0.213448,-0.309016994,0.068773878,0.076302959,-0.586936,-0.17524,0.273544,1016.550232
1152948,0.053801,0.114788,0.232224,-0.368124553,0.076400306,0.08663449,-0.589913,-0.174172,0.273094,1016.550232
1153048,0.009756,0.132854,0.253245,-0.425779292,0.078426837,0.09965449,-0.591378,-0.17308,0.271645,1016.550232
1153148,-0.022714,0.157691,0.271322,-0.481753674,0.076229898,0.116213878,-0.592385,-0.168628,0.272873,1016.550232
1153248,-0.032746,0.193722,0.28139,-0.535826795,0.078781633,0.132845612,-0.595811,-0.170895,0.269246,1016.550232
1153348,-0.026355,0.228887,0.284284,-0.587785252,0.07313398,0.137360408,-0.595777,-0.167336,0.267925,1016.550232
1153448,0.005337,0.268367,0.288471,-0.63742399,0.060782143,0.135002245,-0.596293,-0.167376,0.268924,1016.550232
1153548,0.063281,0.293131,0.290373,-0.684547106,0.036759796,0.135987041,-0.599732,-0.166203,0.266475,1016.550232
1153648,0.1043,0.332312,0.290594,-0.728968627,0.009844184,0.123977449,-0.601673,-0.163561,0.264102,1016.550232
1153748,0.140362,0.352335,0.290432,-0.770513243,-0.016988673,0.115847449,-0.60117,-0.160579,0.264255,1016.550232
1153848,0.155215,0.363711,0.28917,-0.809016994,-0.015721224,0.104072245,-0.60161,-0.15943,0.261307,1016.550232
1153948,0.157686,0.373832,0.287445,-0.844327926,0.010456633,0.086081122,-0.604058,-0.156305,0.259459,1016.550232
1154048,0.132935,0.388275,0.292244,-0.87630668,0.055841122,0.047753878,-0.608018,-0.152706,0.258636,1016.550232
1154148,0.084439,0.387094,0.292703,-0.904827052,0.099386939,-0.004753571,-0.611468,-0.147098,0.257415,1016.550232
1154248,0.032095,0.325393,0.289119,-0.929776486,0.130890204,-0.076086735,-0.612921,-0.144985,0.255517,1016.550232
1154348,-0.03066,0.202697,0.278415,-0.951056516,0.135549796,-0.13606949,-0.615385,-0.140413,0.254745,1016.550232
1154448,-0.080942,0.075137,0.25495,-0.968583161,0.103754694,-0.153524694,-0.612865,-0.139384,0.253297,1016.550232
1154548,-0.106706,-0.034348,0.232077,-0.982287251,0.062600408,-0.150706122,-0.614803,-0.134748,0.251026,1016.550232
1154648,-0.116374,-0.138406,0.209616,-0.992114701,0.016863163,-0.14891551,-0.614817,-0.132305,0.252153,1016.550232
1154748,-0.104703,-0.23343,0.203919,-0.998026728,-0.033648469,-0.149756224,-0.613825,-0.129355,0.252805,1016.550232
1154848,-0.079985,-0.322062,0.206279,-1,-0.078540816,-0.148564082,-0.612354,-0.12696,0.254432,1016.550232
1154948,-0.015594,-0.386446,0.198336,-0.998026728,-0.112724796,-0.130785612,-0.614374,-0.126503,0.255957,1016.546204
1155048,0.078041,-0.410136,0.179466,-0.992114701,-0.15413949,-0.116646429,-0.611409,-0.124629,0.257559,1016.546204
1155148,0.185041,-0.397557,0.15484,-0.982287251,-0.196452449,-0.113070102,-0.610933,-0.121222,0.259236,1016.546204
1155248,0.289296,-0.346887,0.127198,-0.968583161,-0.221353061,-0.105472347,-0.611012,-0.118948,0.263861,1016.546204
1155348,0.387247,-0.246177,0.103912,-0.951056516,-0.218822857,-0.106468367,-0.610512,-0.117959,0.263912,1016.546204
1155448,0.468245,-0.123222,0.066021,-0.929776486,-0.186495816,-0.126077653,-0.610043,-0.118537,0.265386,1016.546204
1155548,0.518097,-0.022608,0.032865,-0.904827052,-0.160802347,-0.160080204,-0.608047,-0.116576,0.265489,1016.546204
1155648,0.543717,0.027549,0.003132,-0.87630668,-0.126940816,-0.178213367,-0.612484,-0.116385,0.262988,1016.546204
1155748,0.546709,0.045564,-0.022477,-0.844327926,-0.104557347,-0.184047143,-0.611542,-0.116047,0.266013,1016.546204
1155848,0.524671,0.037483,-0.032051,-0.809016994,-0.095417653,-0.18094,-0.610474,-0.111908,0.262718,1016.546204
1155948,0.469375,0.018852,-0.021277,-0.770513243,-0.089437245,-0.164956837,-0.613505,-0.114946,0.264564,1016.546204
1156048,0.397616,-0.01522,3.00E-06,-0.728968627,-0.079424184,-0.154953163,-0.615,-0.115421,0.264538,1016.546204
1156148,0.335152,-0.042412,0.021537,-0.684547106,-0.075209184,-0.15122398,-0.612009,-0.113974,0.264615,1016.546204
1156248,0.289677,-0.047378,0.039096,-0.63742399,-0.086611122,-0.140811735,-0.614951,-0.113806,0.262115,1016.546204
1156348,0.258198,-0.033765,0.050106,-0.587785252,-0.095996122,-0.141606939,-0.614462,-0.113339,0.26264,1016.546204
1156448,0.21934,-0.038962,0.057391,-0.535826795,-0.094285,-0.130740816,-0.617479,-0.113863,0.264113,1016.546204
1156548,0.193095,-0.071017,0.062268,-0.481753674,-0.086017041,-0.109078673,-0.617947,-0.10733,0.263444,1016.546204
1156648,0.192263,-0.090516,0.048568,-0.425779292,-0.069968265,-0.070368265,-0.615504,-0.112946,0.265164,1016.546204
1156748,0.204752,-0.108018,0.030219,-0.368124553,-0.059812755,-0.051008367,-0.616934,-0.108294,0.262394,1016.546204
1156848,0.225041,-0.163801,0.009153,-0.309016994,-0.055070714,-0.046517449,-0.615953,-0.106364,0.263495,1016.546204
1156948,0.267142,-0.227073,-0.004183,-0.248689887,-0.054928061,-0.034525714,-0.617489,-0.108928,0.265367,1016.546204
1157048,0.299494,-0.266862,-0.014451,-0.187381315,-0.054323571,-0.036685714,-0.615484,-0.107441,0.264944,1016.546204
1157148,0.313866,-0.300614,-0.02011,-0.125333234,-0.056149796,-0.043197755,-0.614542,-0.106107,0.268019,1016.546204
1157248,0.310733,-0.30645,-0.021786,-0.06279052,-0.054891735,-0.03219398,-0.615543,-0.104122,0.26862,1016.546204
1157348,0.306972,-0.281656,-0.01877,-2.20436E-15,-0.052971939,-0.01599898,-0.614077,-0.104218,0.27012,1016.546204
1157448,0.291314,-0.267895,-0.014189,0.06279052,-0.050747653,-0.013613878,-0.613109,-0.104306,0.27162,1016.546204
1157548,0.247301,-0.261654,-0.017633,0.125333234,-0.048155102,-0.007617143,-0.614616,-0.101341,0.272772,1016.546204
1157648,0.210711,-0.255495,-0.020118,0.187381315,-0.049063265,-0.00752398,-0.608146,-0.099475,0.273375,1016.546204
1157748,0.181821,-0.250163,-0.025241,0.248689887,-0.047212347,-0.009962755,-0.608677,-0.102031,0.274747,1016.546204
1157848,0.168604,-0.239084,-0.030489,0.309016994,-0.052343265,-0.009021327,-0.607236,-0.100704,0.277823,1016.546204
1157948,0.163574,-0.227215,-0.031945,0.368124553,-0.065196531,-0.009636122,-0.605233,-0.100214,0.277349,1016.546204
1158048,0.145529,-0.238008,-0.026301,0.425779292,-0.080866633,-0.019744184,-0.605733,-0.101202,0.277298,1016.546204
1158148,0.113335,-0.263911,-0.012087,0.481753674,-0.092847653,-0.021907857,-0.602245,-0.100759,0.277325,1016.546204
1158248,0.078814,-0.278263,0.003027,0.535826795,-0.100402245,-0.009425612,-0.603312,-0.103901,0.28067,1016.546204
1158348,0.058032,-0.266828,0.012289,0.587785252,-0.092902755,0.003548878,-0.600327,-0.100983,0.281324,1016.546204
1158448,0.045384,-0.235418,0.017664,0.63742399,-0.096654184,0.011116939,-0.598344,-0.101039,0.281824,1016.546204
1158548,0.021642,-0.179614,0.020022,0.684547106,-0.097095408,0.014892551,-0.595872,-0.101127,0.282825,1016.546204
1158648,0.006674,-0.117231,0.015585,0.728968627,-0.10025898,0.018757449,-0.598384,-0.10263,0.283747,1016.546204
1158748,-0.009532,-0.056214,0.016182,0.770513243,-0.103063163,0.025718776,-0.597348,-0.106511,0.281045,1016.546204
1158848,-0.028083,0.007425,0.007303,0.809016994,-0.092097653,0.019372857,-0.595892,-0.107129,0.283019,1016.546204
1158948,-0.037728,0.042248,-0.006048,0.844327926,-0.100428673,0.008110714,-0.596855,-0.104052,0.281672,1016.546204
1159048,-0.041283,0.046336,-0.015025,0.87630668,-0.098777245,-0.015193469,-0.59288,-0.104139,0.282173,1016.546204
1159148,-0.042396,0.043839,-0.033231,0.904827052,-0.097416837,-0.025290918,-0.593356,-0.107547,0.280496,1016.546204
1159248,-0.024689,0.056054,-0.052298,0.929776486,-0.102072959,-0.033382041,-0.594838,-0.106004,0.280071,1016.546204
1159348,0.004675,0.064222,-0.071387,0.951056516,-0.110814592,-0.061255612,-0.595319,-0.106447,0.279047,1016.546204
1159448,0.036138,0.037605,-0.093808,0.968583161,-0.118546122,-0.088862449,-0.593844,-0.107017,0.280021,1016.546204
1159548,0.080186,0.002184,-0.112127,0.982287251,-0.138447653,-0.094534286,-0.592301,-0.105924,0.277574,1016.546204
1159648,0.137546,-0.018957,-0.123013,0.992114701,-0.158967347,-0.089249082,-0.594853,-0.109018,0.280419,1016.546204
1159748,0.203436,0.000839,-0.130798,0.998026728,-0.191107041,-0.069009898,-0.592823,-0.108953,0.27842,1016.546204
1159848,0.260529,0.060067,-0.127075,1,-0.206132143,-0.035638469,-0.592849,-0.107531,0.279996,1016.546204
1159948,0.26689,0.14392,-0.117431,0.998026728,-0.181627449,0.003683776,-0.596344,-0.107001,0.28052,1016.546204
1160048,0.208669,0.2487,-0.105766,0.992114701,-0.130517653,0.054979592,-0.594335,-0.108479,0.279445,1016.546204
1160148,0.123286,0.365903,-0.098761,0.982287251,-0.071299898,0.093463061,-0.598752,-0.107243,0.275996,1016.546204
1160248,0.037913,0.457155,-0.098212,0.968583161,0.000667551,0.094459592,-0.598709,-0.109614,0.27337,1016.546204
1160348,-0.039286,0.500731,-0.101208,0.951056516,0.075431327,0.056197245,-0.602707,-0.111568,0.273767,1016.546204
1160448,-0.079109,0.501744,-0.123158,0.929776486,0.121253265,0.001845102,-0.605658,-0.110926,0.271792,1016.546204
1160548,-0.088173,0.500891,-0.15039,0.904827052,0.110317653,-0.050597857,-0.606571,-0.111192,0.267268,1016.546204
1160648,-0.115387,0.509543,-0.176304,0.87630668,0.090803469,-0.107816122,-0.609531,-0.110574,0.265793,1016.546204
1160748,-0.185913,0.448453,-0.199267,0.844327926,0.058331633,-0.189405612,-0.612461,-0.113845,0.262116,1016.546204
1160848,-0.279374,0.29036,-0.201453,0.809016994,0.03741898,-0.25640949,-0.613451,-0.11084,0.262268,1016.546204
1160948,-0.360527,0.085078,-0.192844,0.770513243,0.026751735,-0.286549694,-0.610917,-0.112254,0.259693,1016.546204
1161048,-0.408804,-0.092186,-0.181742,0.728968627,-0.000565612,-0.285061429,-0.612887,-0.115139,0.258041,1016.546204
1161148,-0.425994,-0.215085,-0.148566,0.684547106,-0.027379286,-0.257268469,-0.611432,-0.116754,0.259964,1016.546204
1161248,-0.411848,-0.292224,-0.11785,0.63742399,-0.037309286,-0.223561327,-0.611411,-0.115211,0.259041,1016.546204
1161348,-0.397484,-0.326116,-0.090654,0.587785252,-0.029332857,-0.169306429,-0.612483,-0.121343,0.262234,1016.546204
1161448,-0.386754,-0.31519,-0.072885,0.535826795,-0.015193469,-0.107114796,-0.608465,-0.118345,0.260889,1016.547974
1161548,-0.386308,-0.258762,-0.052989,0.481753674,0.008519898,-0.076157551,-0.608984,-0.119381,0.261837,1016.547974
1161648,-0.409873,-0.19551,-0.034536,0.425779292,0.040914184,-0.059777143,-0.608494,-0.124371,0.261584,1016.547974
1161748,-0.450503,-0.125014,-0.019279,0.368124553,0.066568571,-0.047102551,-0.605488,-0.124869,0.260559,1016.547974
1161848,-0.494564,-0.031061,-0.001575,0.309016994,0.075052041,-0.060697959,-0.607923,-0.130141,0.256781,1016.547974
1161948,-0.519366,0.044909,0.009679,0.248689887,0.067795918,-0.093275612,-0.606452,-0.133202,0.257628,1016.547974
1162048,-0.503379,0.090437,0.010023,0.187381315,0.05113949,-0.124362755,-0.606392,-0.136023,0.253977,1016.547974
1162148,-0.462391,0.10713,0.000365,0.125333234,0.024651939,-0.145595306,-0.607816,-0.1378,0.249876,1016.547974
1162248,-0.406048,0.091805,-0.022064,0.06279052,-0.018479898,-0.154491122,-0.608773,-0.141649,0.247174,1016.547974
1162348,-0.329418,0.046559,-0.044392,-1.22588E-15,-0.058353163,-0.147133367,-0.606755,-0.143103,0.245599,1016.547974
1162448,-0.242781,-0.015127,-0.069328,-0.06279052,-0.090918367,-0.150202755,-0.607293,-0.144687,0.247522,1016.547974
1162548,-0.161319,-0.079868,-0.069309,-0.125333234,-0.100670306,-0.158522347,-0.608734,-0.146013,0.244447,1016.547974
1162648,-0.103562,-0.159902,-0.048453,-0.187381315,-0.08911102,-0.158030306,-0.608281,-0.150103,0.246242,1016.547974
1162748,-0.068995,-0.229286,-0.024989,-0.248689887,-0.061240408,-0.147723163,-0.606272,-0.146623,0.245921,1016.547974
1162848,-0.046256,-0.284972,-0.011292,-0.309016994,-0.039367653,-0.118250918,-0.608779,-0.150593,0.246217,1016.547974
1162948,-0.03522,-0.301203,0.004738,-0.368124553,-0.024232245,-0.068576224,-0.607796,-0.147668,0.247369,1016.547974
1163048,-0.049216,-0.272422,0.037242,-0.425779292,-0.020663163,-0.032389898,-0.607281,-0.148624,0.246319,1016.547974
1163148,-0.064353,-0.25368,0.076993,-0.481753674,-0.012367755,-0.016960612,-0.60787,-0.147362,0.251393,1016.547974
1163248,-0.106343,-0.215772,0.111523,-0.535826795,-0.002258163,0.001494898,-0.605371,-0.147876,0.250869,1016.547974
1163348,-0.144824,-0.152724,0.127201,-0.587785252,0.008020408,0.011282245,-0.606341,-0.148784,0.249318,1016.547974
1163448,-0.16458,-0.091464,0.129909,-0.63742399,0.012088061,-0.002487755,-0.609348,-0.148785,0.250317,1016.547974
1163548,-0.162393,-0.054674,0.120635,-0.684547106,0.021293061,-0.020831224,-0.610357,-0.150288,0.25074,1016.547974
1163648,-0.146364,-0.020671,0.09938,-0.728968627,0.03334898,-0.028493061,-0.610815,-0.148689,0.248817,1016.547974
1163748,-0.134902,0.015102,0.066509,-0.770513243,0.040474286,-0.048256429,-0.611316,-0.150674,0.248715,1016.547974
1163848,-0.122913,0.011978,0.037506,-0.809016994,0.045914796,-0.067317041,-0.612764,-0.15053,0.246216,1016.547974
1163948,-0.111839,-0.030145,0.014325,-0.844327926,0.054435102,-0.074763061,-0.612756,-0.151004,0.24569,1016.547974
1164048,-0.108635,-0.087641,-0.007896,-0.87630668,0.05466,-0.070741735,-0.613264,-0.151519,0.246165,1016.547974
1164148,-0.093349,-0.139082,-0.021361,-0.904827052,0.047169286,-0.061522755,-0.609776,-0.151076,0.246191,1016.547974
1164248,-0.080385,-0.172751,-0.030642,-0.929776486,0.033512449,-0.044928673,-0.613278,-0.154034,0.246538,1016.547974
1164348,-0.065961,-0.163511,-0.036705,-0.951056516,0.016267959,-0.02487602,-0.609276,-0.149589,0.246268,1016.547974
1164448,-0.052923,-0.130853,-0.038455,-0.968583161,0.003642755,-0.023422755,-0.607795,-0.152128,0.246641,1016.547974
1164548,-0.035439,-0.099662,-0.034425,-0.982287251,-0.007341633,-0.025137755,-0.609278,-0.151084,0.246191,1016.547974
1164648,-0.016005,-0.077477,-0.02397,-0.992114701,-0.008947347,-0.023781224,-0.608256,-0.152024,0.244641,1016.547974
1164748,0.002414,-0.062883,-0.011833,-0.998026728,-0.008135918,-0.018027755,-0.605791,-0.150641,0.246218,1016.547974
1164848,0.011466,-0.038274,0.000731,-1,-0.007741633,-0.008017551,-0.607776,-0.15208,0.245641,1016.547974
1164948,0.009204,-0.005105,0.010023,-0.998026728,-0.003620408,-0.003319694,-0.605749,-0.148053,0.244346,1016.547974
1165048,-0.01104,0.0137,0.018671,-0.992114701,0.014372653,-0.015241122,-0.606287,-0.149637,0.246269,1016.547974
1165148,-0.052468,0.012896,0.024156,-0.982287251,0.044774898,-0.017491224,-0.602778,-0.147651,0.245372,1016.547974
1165248,-0.091718,0.006667,0.020717,-0.968583161,0.069848673,-0.017045204,-0.602268,-0.14614,0.244948,1016.547974
1165348,-0.106416,0.005381,0.010381,-0.951056516,0.079680306,-0.021619286,-0.604227,-0.148503,0.242821,1016.547974
1165448,-0.098615,-0.003466,-0.000145,-0.929776486,0.079906735,-0.031935102,-0.600752,-0.149579,0.243271,1016.547974
1165548,-0.090871,-0.01739,-0.008114,-0.904827052,0.069417041,-0.035185816,-0.604727,-0.148993,0.242796,1016.547974
1165648,-0.080522,-0.021058,-0.014317,-0.87630668,0.051623265,-0.026351837,-0.60222,-0.150479,0.241721,1016.547974
1165748,-0.068369,-0.010486,-0.012328,-0.844327926,0.034216633,-0.008431939,-0.600722,-0.14851,0.241823,1016.547974
1165848,-0.058373,0.011188,-0.012382,-0.809016994,0.020486224,0.002388571,-0.599183,-0.14941,0.239274,1016.547974
1165948,-0.056768,0.049918,-0.005155,-0.770513243,0.01654398,0.008965102,-0.600653,-0.14585,0.238451,1016.547974
1166048,-0.057654,0.095353,0.005826,-0.728968627,0.018620612,0.00307898,-0.599645,-0.149804,0.237248,1016.547974
1166148,-0.065758,0.130516,0.019462,-0.684547106,0.020732857,-0.005456224,-0.596615,-0.147762,0.235352,1016.547974
1166248,-0.067506,0.140718,0.034491,-0.63742399,0.019867653,-0.01093449,-0.596076,-0.145681,0.233455,1016.547974
1166348,-0.064512,0.15626,0.043839,-0.587785252,0.014632653,0.009831122,-0.595125,-0.14482,0.236005,1016.549683
1166448,-0.067312,0.191034,0.060241,-0.535826795,0.006458061,0.032784592,-0.595033,-0.145078,0.230981,1016.549683
1166548,-0.062354,0.23534,0.079181,-0.481753674,-0.005083163,0.068742347,-0.595479,-0.14196,0.228635,1016.549683
1166648,-0.046875,0.316098,0.10505,-0.425779292,-0.013413469,0.098599694,-0.59498,-0.14147,0.22866,1016.549683
1166748,0.000405,0.426125,0.118227,-0.368124553,-0.02442102,0.094412143,-0.59494,-0.139879,0.226737,1016.549683
1166848,0.076858,0.537375,0.115132,-0.309016994,-0.03470398,0.069109184,-0.595332,-0.137613,0.221341,1016.549683
1166948,0.136336,0.581508,0.100393,-0.248689887,-0.022563367,0.028189082,-0.597785,-0.137477,0.219341,1016.549683
1167048,0.147876,0.523517,0.083306,-0.187381315,0.008705102,0.004031429,-0.600697,-0.130286,0.216197,1016.549683
1167148,0.087302,0.430658,0.062523,-0.125333234,0.048048571,-0.001973367,-0.596665,-0.130229,0.213699,1016.549683
1167248,0.001908,0.385905,0.049884,-0.06279052,0.071288673,-0.005075816,-0.59959,-0.130511,0.210174,1016.549683
1167348,-0.083352,0.381961,0.040576,0,0.085529082,-0.041312245,-0.599556,-0.12745,0.208827,1016.549683
1167448,-0.163069,0.389934,0.036397,0.06279052,0.091004592,-0.078259796,-0.601992,-0.122806,0.206556,1016.549683
1167548,-0.233418,0.37188,0.038281,0.125333234,0.086804796,-0.101730714,-0.603476,-0.121761,0.206107,1016.549683
1167648,-0.284813,0.305405,0.034159,0.187381315,0.082064592,-0.122736531,-0.600908,-0.120114,0.202185,1016.549683
1167748,-0.326242,0.191265,0.024955,0.248689887,0.066022959,-0.146515306,-0.605337,-0.115438,0.199913,1016.549683
1167848,-0.348248,0.063721,0.01764,0.309016994,0.040018571,-0.142490714,-0.606831,-0.115414,0.199913,1016.549683
1167948,-0.367648,-0.050761,0.017689,0.368124553,0.020170816,-0.122050306,-0.602828,-0.110471,0.199668,1016.549683
1168048,-0.366994,-0.120832,0.022543,0.425779292,0.00182551,-0.086758367,-0.603372,-0.110085,0.202193,1016.549683
1168148,-0.345572,-0.14076,0.024187,0.481753674,-0.011804592,-0.060502143,-0.601802,-0.109418,0.19822,1016.549683
1168248,-0.304619,-0.127932,0.025086,0.535826795,-0.027126122,-0.039032041,-0.600846,-0.106067,0.200897,1016.549683
1168348,-0.239788,-0.095512,0.020344,0.587785252,-0.040097143,-0.03376449,-0.603326,-0.105007,0.200448,1016.549683
1168448,-0.146056,-0.092198,0.004915,0.63742399,-0.041842959,-0.035742857,-0.602251,-0.102837,0.196551,1016.549683
1168548,-0.033823,-0.083728,-0.022145,0.684547106,-0.04538898,-0.048909184,-0.598331,-0.103068,0.200051,1016.549683
1168648,0.081766,-0.066043,-0.055261,0.728968627,-0.061067245,-0.067342041,-0.599338,-0.103575,0.200525,1016.549683
1168748,0.204772,-0.038974,-0.085522,0.770513243,-0.084076429,-0.086952755,-0.597818,-0.099565,0.199729,1016.549683
1168848,0.3057,-0.011653,-0.100371,0.809016994,-0.108345102,-0.116171122,-0.595829,-0.101589,0.199628,1016.549683
1168948,0.370967,0.017692,-0.107965,0.844327926,-0.13628449,-0.145192653,-0.593855,-0.101669,0.200628,1016.549683
1169048,0.398513,0.037284,-0.102978,0.87630668,-0.166861122,-0.168207245,-0.590892,-0.105751,0.201425,1016.549683
1169148,0.403477,0.052452,-0.08146,0.904827052,-0.18420051,-0.167328776,-0.592365,-0.103686,0.200527,1016.549683
1169248,0.384122,0.077199,-0.044481,0.929776486,-0.175069796,-0.148433673,-0.590365,-0.105188,0.199951,1016.549683
1169348,0.340338,0.115971,-0.011527,0.951056516,-0.154438571,-0.132842653,-0.591346,-0.107117,0.19885,1016.549683
1169448,0.28053,0.133686,0.021805,0.968583161,-0.133065816,-0.121585102,-0.589824,-0.107068,0.197351,1016.549683
1169548,0.222375,0.112694,0.055488,0.982287251,-0.105268061,-0.134715714,-0.590304,-0.107012,0.196351,1016.549683
1169648,0.175946,0.073933,0.083964,0.992114701,-0.06904602,-0.141389898,-0.587787,-0.107976,0.194802,1016.549683
1169748,0.145863,0.046896,0.093857,0.998026728,-0.033952143,-0.136147245,-0.58981,-0.104553,0.196978,1016.549683
1169848,0.127172,0.033744,0.090447,1,-0.006341939,-0.120927245,-0.588329,-0.106594,0.197377,1016.549683
1169948,0.113364,0.011278,0.073098,0.998026728,0.008843776,-0.091968265,-0.592254,-0.104393,0.194479,1016.549683
1170048,0.099814,-0.020938,0.051452,0.992114701,0.011568163,-0.058124694,-0.590744,-0.100407,0.194182,1016.549683
1170148,0.084767,-0.067608,0.027064,0.982287251,0.004507245,-0.020201224,-0.591749,-0.100415,0.194682,1016.549683
1170248,0.087093,-0.11622,0.00859,0.968583161,-0.012003878,0.008908469,-0.592779,-0.098503,0.196782,1016.549683
1170348,0.109095,-0.152434,-0.001516,0.951056516,-0.024516633,0.024009694,-0.589248,-0.094476,0.194988,1016.549683
1170448,0.143661,-0.178331,-0.012295,0.929776486,-0.03412949,0.028969694,-0.590791,-0.095569,0.197435,1016.549683
1170548,0.181088,-0.195183,-0.014383,0.904827052,-0.045166224,0.028880408,-0.589797,-0.092122,0.198113,1016.549683
1170648,0.202248,-0.195677,-0.014661,0.87630668,-0.045365612,0.024452551,-0.587861,-0.092298,0.201113,1016.549683
1170748,0.220462,-0.175178,-0.015495,0.844327926,-0.050514694,0.030336122,-0.586345,-0.090778,0.20019,1016.549683
1170848,0.232588,-0.141385,-0.00947,0.809016994,-0.051407245,0.029614898,-0.586407,-0.088954,0.20379,1016.549683
1170948,0.231802,-0.099466,-0.006693,0.770513243,-0.037065816,0.026039388,-0.585956,-0.089581,0.206264,1016.549683
1171048,0.209254,-0.078377,-0.005555,0.728968627,-0.030128776,0.017821633,-0.586454,-0.089573,0.206264,1016.549683
1171148,0.179902,-0.045747,-0.011213,0.684547106,-0.024602551,0.011241429,-0.582956,-0.088109,0.205841,1016.551392
1171248,0.138716,-0.017475,-0.01468,0.63742399,-0.026964082,0.007692755,-0.582447,-0.087595,0.205367,1016.551392
1171348,0.10462,-0.016807,-0.013554,0.587785252,-0.037080816,-0.00429398,-0.580456,-0.088125,0.205342,1016.551392
1171448,0.094953,-0.037307,-0.014521,0.535826795,-0.046239898,-0.002797041,-0.5775,-0.085778,0.207469,1016.551392
1171548,0.100339,-0.059776,-0.011908,0.481753674,-0.055954898,0.009515714,-0.581441,-0.087089,0.204893,1016.551392
1171648,0.126522,-0.081336,-0.010664,0.425779292,-0.06872051,0.016488061,-0.579513,-0.086791,0.208417,1016.551392
1171748,0.140747,-0.095488,-0.007727,0.368124553,-0.075037755,0.031855714,-0.578064,-0.086436,0.210942,1016.551392
1171848,0.141188,-0.106587,-0.003256,0.309016994,-0.073498163,0.050261224,-0.575559,-0.083462,0.210596,1016.551392
1171948,0.121323,-0.118665,0.002656,0.248689887,-0.071034796,0.065296224,-0.575107,-0.083591,0.213095,1016.551392
1172048,0.103231,-0.120693,0.002782,0.187381315,-0.061948061,0.085002653,-0.576589,-0.08155,0.212696,1016.551392
1172148,0.093431,-0.099062,-0.000502,0.125333234,-0.050437449,0.096498571,-0.570635,-0.079226,0.214324,1016.551392
1172248,0.091944,-0.071153,0.000317,0.06279052,-0.040890714,0.098100102,-0.575105,-0.077138,0.213925,1016.551392
1172348,0.088389,-0.038848,-0.001089,1.2246E-16,-0.03088898,0.090414898,-0.570677,-0.076855,0.21695,1016.551392
1172448,0.077356,-0.012843,-0.008195,-0.06279052,-0.026106735,0.077292755,-0.572168,-0.074839,0.217052,1016.551392
1172548,0.06943,0.001659,-0.021818,-0.125333234,-0.028001939,0.069634082,-0.568686,-0.072925,0.217654,1016.551392
