time,gx,gy,gz,ax,ay,az,Mag_X,Mag_Y,Mag_Z,p
827077,-0.012855,-0.002683,-0.016348,1.006137857,0.099415,0.051080102,-0.261105,-0.040984,1.044844,1016.549011
827177,-0.01481,-0.006874,-0.019637,0.997655714,0.101868776,0.055338061,-0.264582,-0.040406,1.044369,1016.549011
827277,-0.014912,-0.017644,-0.020674,0.993675612,0.107045714,0.055105102,-0.272082,-0.045817,1.045086,1016.549011
827377,-0.021444,-0.021967,-0.020608,0.992152245,0.100938673,0.062576735,-0.272553,-0.046235,1.043561,1016.549011
827477,-0.025281,-0.01489,-0.017652,0.991129898,0.088931837,0.057732653,-0.276539,-0.046669,1.043535,1016.550781
827577,-0.028731,-0.013601,-0.011886,0.995150918,0.08446051,0.059366633,-0.276045,-0.049169,1.043408,1016.550781
827677,-0.029256,-0.002899,-0.008013,1.00718949,0.084130102,0.059882755,-0.279543,-0.050134,1.043856,1016.550781
827777,-0.026784,0.009165,-0.008019,1.008175306,0.086090306,0.061477857,-0.277623,-0.049362,1.047906,1016.550781
827877,-0.023161,0.009081,-0.004534,0.999895612,0.086600306,0.057491224,-0.282665,-0.051918,1.050776,1016.550781
827977,-0.017875,-0.004433,-0.005349,0.988851429,0.089693061,0.055439082,-0.281154,-0.047932,1.05048,1016.550781
828077,-0.008743,-0.015837,-0.007614,0.98895,0.095837857,0.061706735,-0.283659,-0.050906,1.050826,1016.550781
828177,-0.000211,-0.018042,-0.010245,0.988029796,0.100807959,0.05807898,-0.282225,-0.048109,1.054478,1016.550781
828277,0.006252,-0.019908,-0.01122,0.990092041,0.102959694,0.050830408,-0.27823,-0.048148,1.053979,1016.550781
828377,0.011021,-0.026757,-0.008363,0.994290816,0.102652959,0.047222653,-0.276667,-0.050968,1.049829,1016.550781
828477,0.01617,-0.036532,-0.00554,0.996393469,0.100507449,0.049944082,-0.274547,-0.052656,1.042731,1016.550781
828577,0.019991,-0.041853,-0.003865,0.996554388,0.095907347,0.055279286,-0.271469,-0.054456,1.037632,1016.550781
828677,0.022182,-0.039273,-0.002267,0.994233163,0.08667898,0.056260816,-0.270458,-0.056416,1.036531,1016.550781
828777,0.020448,-0.030886,-0.001135,0.992153469,0.078973163,0.058635,-0.268311,-0.058031,1.027934,1016.550781
828877,0.021834,-0.022877,0.000708,0.98827898,0.07640602,0.055304286,-0.265853,-0.061132,1.029281,1016.550781
828977,0.030083,-0.02593,0.002244,0.988587347,0.074833571,0.049097653,-0.265193,-0.063696,1.020133,1016.550781
829077,0.044902,-0.034727,0.006829,0.993437959,0.081842449,0.04724102,-0.265235,-0.066782,1.02198,1016.55011
829177,0.053,-0.043692,0.011838,0.994594592,0.093546327,0.051719796,-0.262739,-0.063832,1.022133,1016.55011
829277,0.053619,-0.049751,0.01382,0.994072653,0.103174796,0.055631735,-0.260608,-0.069457,1.013831,1016.55011
829377,0.04582,-0.051782,0.010195,0.997669184,0.113270816,0.054966224,-0.258133,-0.067552,1.014934,1016.55011
829477,0.035973,-0.053001,0.006035,1.000614388,0.11361602,0.051862347,-0.254683,-0.072661,1.01618,1016.55011
829577,0.033594,-0.047403,0.000917,1.002201735,0.109016939,0.041792143,-0.252653,-0.072597,1.014181,1016.55011
829677,0.03371,-0.040401,-0.001972,1.001926531,0.101951633,0.036939082,-0.251127,-0.075514,1.01203,1016.55011
829777,0.02672,-0.039699,-0.004452,1.001400306,0.097194184,0.040093776,-0.248124,-0.078004,1.010905,1016.55011
829877,0.018523,-0.040656,-0.006856,0.994360204,0.096510102,0.050157245,-0.247177,-0.079635,1.013327,1016.55011
829977,0.010004,-0.044791,-0.012191,0.990504286,0.09524,0.062827245,-0.245653,-0.07859,1.011879,1016.55011
830077,0.005389,-0.045228,-0.017286,0.986234286,0.092077041,0.064657755,-0.247147,-0.078566,1.011879,1016.55011
830177,0.004013,-0.048196,-0.018221,0.988513673,0.089531122,0.06076051,-0.24469,-0.076709,1.013981,1016.55011
830277,0.009979,-0.043109,-0.015602,0.99880449,0.090547041,0.053953571,-0.247192,-0.07769,1.014429,1016.55011
830377,0.026293,-0.031398,-0.010867,0.998425102,0.099143776,0.04481898,-0.244792,-0.076476,1.019504,1016.55011
830477,0.032028,-0.027863,-0.007441,0.990067959,0.100157143,0.036300306,-0.247865,-0.076645,1.024001,1016.55011
830577,0.021507,-0.042328,-0.002543,0.99089051,0.092283265,0.036209796,-0.243863,-0.072698,1.023706,1016.55011
830677,0.016391,-0.056909,-0.00268,0.99387949,0.090054286,0.040274388,-0.245484,-0.071019,1.030804,1016.55011
830777,0.014772,-0.063066,-0.001156,0.99289898,0.096606939,0.045794286,-0.242451,-0.066984,1.029009,1016.55011
830877,0.01126,-0.070802,-0.00287,0.996837347,0.095441429,0.055626939,-0.241018,-0.064685,1.032635,1016.55011
830977,0.01719,-0.072879,-0.002655,1.00065898,0.097434796,0.057707449,-0.237472,-0.063102,1.029714,1016.55011
831077,0.017793,-0.06431,-0.004739,0.999968367,0.10494102,0.051432143,-0.23255,-0.059862,1.033392,1016.55011
831177,0.01836,-0.058584,-0.005954,0.995497347,0.107802143,0.039947449,-0.23161,-0.060022,1.036391,1016.55011
831277,0.015956,-0.054001,-0.005384,0.992892551,0.107630816,0.038144592,-0.230051,-0.054919,1.033647,1016.55011
831377,0.015617,-0.050291,-0.005671,0.994688367,0.105268878,0.040565408,-0.226615,-0.052627,1.036773,1016.55011
831477,0.016189,-0.048342,-0.003586,0.994493163,0.105516429,0.040484796,-0.22404,-0.051952,1.032301,1016.55011
831577,0.01342,-0.053779,-0.001565,0.993878469,0.104566122,0.039904694,-0.221091,-0.053591,1.034225,1016.55011
831677,0.004498,-0.054439,0.002269,0.994834388,0.102583265,0.042734082,-0.221517,-0.054386,1.030176,1016.55011
831777,-0.002786,-0.051867,0.003575,0.996092347,0.098008776,0.043011735,-0.214031,-0.05199,1.029805,1016.55011
831877,-0.006928,-0.05076,0.007935,0.997276429,0.096719898,0.040154898,-0.214896,-0.056595,1.022054,1016.55011
831977,-0.006743,-0.04527,0.008828,0.998137959,0.096079898,0.039244694,-0.213879,-0.055068,1.021131,1016.55011
832077,-0.004783,-0.040818,0.011292,0.998161735,0.100431837,0.039892551,-0.21384,-0.058933,1.018429,1016.55011
832177,-0.002517,-0.035703,0.010509,1.001580714,0.10276,0.04135898,-0.212791,-0.060797,1.015329,1016.55011
832277,0.002976,-0.028063,0.010322,0.998951327,0.10579602,0.043083776,-0.217714,-0.059079,1.012404,1016.55188
832377,0.002965,-0.020547,0.010788,0.999816939,0.105086327,0.046553367,-0.216171,-0.057986,1.009957,1016.55188
832477,-0.002362,-0.01489,0.009047,1.003081122,0.103995204,0.043427041,-0.213214,-0.060098,1.011355,1016.55188
832577,-0.00639,-0.007798,0.008585,1.000121633,0.104617143,0.044206224,-0.214085,-0.062735,1.004205,1016.55188
832677,-0.008558,-0.006213,0.009142,0.998571939,0.105961837,0.042121939,-0.216076,-0.062205,1.00423,1016.55188
832777,-0.008749,-0.000713,0.005231,0.99992551,0.102644184,0.039182449,-0.21692,-0.064769,0.995581,1016.55188
832877,-0.006552,0.003834,0.008908,0.997282959,0.101402959,0.047030408,-0.216013,-0.067991,0.999927,1016.55188
832977,-0.002578,0.012843,0.00919,0.999113061,0.099204286,0.052916531,-0.215001,-0.069454,0.998851,1016.55188
833077,-0.005484,0.025623,0.010707,1.000130918,0.098597347,0.053340102,-0.214433,-0.072258,0.994701,1016.55188
833177,-0.007692,0.03591,0.009077,0.998401224,0.100759388,0.050748571,-0.212035,-0.07204,0.999725,1016.55188
833277,-0.002134,0.03638,0.009435,0.999272449,0.097053163,0.045385,-0.211533,-0.075014,0.999073,1016.55188
833377,0.009278,0.040959,0.006756,1.002315204,0.095252857,0.043102245,-0.211564,-0.077079,1.000471,1016.55188
833477,0.019225,0.053032,0.002942,1.004161939,0.095527245,0.044333469,-0.212621,-0.07474,1.004096,1016.55188
833577,0.017294,0.061317,-0.000783,1.003013163,0.099324898,0.044031122,-0.211644,-0.075303,1.00507,1016.55188
833677,0.009419,0.064352,-0.002046,0.999010714,0.100814082,0.045034184,-0.213168,-0.081306,1.005765,1016.55188
833777,-0.002601,0.062525,-0.003848,0.997605714,0.107142143,0.047101735,-0.212274,-0.07613,1.012042,1016.55188
833877,-0.006343,0.06397,-0.00381,0.993665102,0.113016735,0.051567449,-0.216376,-0.079345,1.017886,1016.55188
833977,-0.008795,0.070655,-0.003379,0.995723571,0.10899051,0.055307755,-0.214344,-0.078284,1.015939,1016.55188
834077,-0.009676,0.077695,-0.002391,0.998856122,0.102179796,0.051228469,-0.215866,-0.077834,1.017463,1016.55188
834177,-0.01203,0.089499,0.000696,1.002012755,0.098544898,0.050684592,-0.218925,-0.075987,1.021562,1016.55188
834277,-0.009784,0.097579,0.003073,1.002261327,0.094215918,0.050474592,-0.221996,-0.07516,1.02611,1016.55188
834377,-0.003012,0.110555,0.002989,0.998803367,0.088250918,0.050343367,-0.222607,-0.070981,1.032836,1016.55188
834477,0.004413,0.117933,0.003652,0.994381224,0.087179694,0.049587959,-0.230126,-0.070982,1.035333,1016.55188
834577,0.010714,0.108912,0.003711,0.989185714,0.091495102,0.04956102,-0.230205,-0.068708,1.039958,1016.55188
834677,0.011832,0.097829,0.005045,0.988401122,0.098862653,0.049378367,-0.236835,-0.066524,1.048579,1016.55188
834777,0.006402,0.088119,0.011647,0.990377857,0.106849694,0.050579286,-0.237867,-0.061148,1.051358,1016.55188
834877,0.004332,0.087315,0.012103,0.990714184,0.10978398,0.052109796,-0.239445,-0.060843,1.055881,1016.55188
834977,0.012073,0.09583,0.016121,0.990521633,0.106674694,0.053632449,-0.242884,-0.054712,1.054185,1016.55188
835077,0.032628,0.099797,0.018802,0.996457449,0.095552959,0.052945918,-0.244895,-0.04977,1.055938,1016.55188
835177,0.0593,0.099557,0.019482,0.99753051,0.078946633,0.056114694,-0.247369,-0.045223,1.055666,1016.55188
835277,0.077443,0.08143,0.013507,0.998302551,0.066386939,0.060176939,-0.251881,-0.045722,1.057139,1016.55188
835377,0.085124,0.061519,0.002318,0.990623878,0.068733367,0.067361122,-0.249926,-0.035933,1.060646,1016.55188
835477,0.086161,0.050068,-0.010112,0.983600204,0.081436531,0.075716224,-0.251966,-0.031064,1.063899,1016.549561
835577,0.091006,0.062474,-0.021444,0.981138878,0.093939592,0.074355408,-0.253523,-0.024756,1.068227,1016.549561
835677,0.106417,0.07754,-0.031441,0.977764796,0.102930408,0.06089,-0.249732,-0.018872,1.079554,1016.549561
835777,0.119054,0.073277,-0.036114,0.978097653,0.108801122,0.042914082,-0.247672,-0.007324,1.07764,1016.549561
835877,0.118188,0.047118,-0.037382,0.984142857,0.106385612,0.036357041,-0.247765,-0.002109,1.083417,1016.549561
835977,0.113744,0.01865,-0.035602,0.989944898,0.099813367,0.051406939,-0.247327,0.005662,1.087822,1016.549561
836077,0.110718,-0.005842,-0.034854,0.995575408,0.097931122,0.071130306,-0.25038,0.010998,1.092099,1016.549561
836177,0.105601,-0.031216,-0.03645,0.997849184,0.091990408,0.086968776,-0.245954,0.020699,1.096607,1016.549561
836277,0.095658,-0.049227,-0.046186,0.994789082,0.094147347,0.089196224,-0.251044,0.027938,1.103484,1016.549561
836377,0.090462,-0.034039,-0.055106,0.990376735,0.103610714,0.081373061,-0.247225,0.033396,1.113286,1016.549561
836477,0.08324,-0.007919,-0.061147,0.983280306,0.115542041,0.062903571,-0.249777,0.040218,1.11764,1016.549561
836577,0.081647,0.00718,-0.064207,0.978465408,0.12109051,0.042475408,-0.252318,0.048559,1.121569,1016.549561
836677,0.076343,0.003166,-0.060819,0.981814694,0.124839082,0.043728776,-0.252417,0.050287,1.127169,1016.549561
836777,0.066086,-0.017525,-0.05001,0.986826735,0.120063163,0.044537245,-0.25044,0.057158,1.129025,1016.549561
836877,0.053262,-0.044107,-0.037517,0.995409796,0.11303398,0.051895306,-0.252044,0.057889,1.135072,1016.549561
836977,0.048442,-0.059916,-0.025954,1.001114796,0.109938673,0.057548367,-0.251546,0.068296,1.136606,1016.549561
837077,0.044644,-0.063351,-0.015946,1.001361122,0.102723469,0.060464592,-0.254647,0.068055,1.142603,1016.549561
837177,0.048863,-0.059072,-0.013199,0.996673163,0.100607653,0.066180408,-0.253704,0.074347,1.146432,1016.549561
837277,0.048021,-0.054945,-0.014991,0.990590918,0.106822755,0.066714898,-0.254758,0.078678,1.150159,1016.549561
837377,0.042016,-0.044714,-0.018678,0.984649694,0.114178673,0.070976122,-0.252807,0.086474,1.153565,1016.549561
837477,0.035072,-0.032337,-0.020856,0.987179898,0.121958776,0.070366633,-0.251384,0.087752,1.15764,1016.549561
837577,0.031977,-0.021271,-0.019321,0.990368776,0.127147347,0.068915408,-0.246989,0.095886,1.163571,1016.549561
837677,0.032395,-0.008921,-0.012458,0.998192347,0.126112755,0.068120918,-0.250585,0.097147,1.169644,1016.549561
837777,0.039409,-0.002651,-0.001988,1.003023571,0.119586837,0.065821429,-0.246549,0.104654,1.168027,1016.549561
837877,0.043214,-0.003064,0.011241,1.010518673,0.109510612,0.062146735,-0.251187,0.10135,1.17587,1016.549561
837977,0.047051,-0.008025,0.017295,1.013302449,0.10125398,0.063332959,-0.249182,0.108294,1.176226,1016.549561
838077,0.048045,-0.012019,0.021249,1.005067143,0.101031122,0.067557449,-0.251716,0.109708,1.1788,1016.549561
838177,0.049192,-0.023155,0.023302,0.996386735,0.114483367,0.07588102,-0.251329,0.114867,1.185578,1016.549561
838277,0.043602,-0.024315,0.019927,0.990501224,0.127093469,0.078474694,-0.254824,0.115895,1.186127,1016.549561
838377,0.029443,-0.013918,0.01695,0.982050204,0.131273163,0.073659694,-0.255366,0.117277,1.188702,1016.549561
838477,0.026759,-0.009816,0.019318,0.977498367,0.128021224,0.065645408,-0.252918,0.119608,1.191329,1016.549561
838577,0.034491,-0.006274,0.021181,0.980015,0.122593469,0.059171429,-0.252954,0.124968,1.194108,1016.549561
838677,0.043554,-0.01172,0.024507,0.986228265,0.118514694,0.055023878,-0.251511,0.122333,1.19648,1016.549561
838777,0.047812,-0.018942,0.026633,0.986666429,0.121244184,0.057597347,-0.249501,0.121353,1.19543,1016.549561
838877,0.047303,-0.02675,0.026185,0.990408163,0.124955816,0.057509082,-0.248565,0.124158,1.199081,1016.549561
838977,0.048776,-0.029585,0.027052,0.99355949,0.130174082,0.057162143,-0.242588,0.129021,1.199837,1016.549561
839077,0.050378,-0.02446,0.030066,0.99002051,0.132198265,0.057387755,-0.241039,0.128644,1.196814,1016.549561
839177,0.051416,-0.01856,0.029633,0.989119796,0.128166633,0.052739694,-0.242044,0.128635,1.197313,1016.549561
839277,0.043426,-0.019625,0.029174,0.987277857,0.117476633,0.053190306,-0.236042,0.127118,1.195739,1016.549561
839377,0.038712,-0.02964,0.029387,0.988330612,0.111334592,0.048348367,-0.232013,0.130639,1.193919,1016.549561
839477,0.035635,-0.049157,0.033333,0.992174592,0.11200551,0.049670918,-0.228891,0.132424,1.186999,1016.549561
839577,0.025275,-0.064527,0.034702,0.994834592,0.123809388,0.058268163,-0.226832,0.133557,1.183552,1016.549561
839677,0.012153,-0.066968,0.036099,0.992039184,0.132208776,0.066994184,-0.227244,0.12982,1.17835,1016.549561
839777,0.005308,-0.059925,0.034482,0.987126735,0.137602857,0.065280918,-0.219595,0.130657,1.168882,1016.549561
839877,0.011804,-0.050582,0.025541,0.976081122,0.137863673,0.049412653,-0.219054,0.128777,1.166281,1016.549561
839977,0.028917,-0.049384,0.018971,0.962048163,0.126991735,0.032373367,-0.217869,0.125281,1.155583,1016.549561
840077,0.053272,-0.069305,0.0166,0.953679286,0.111609694,0.020675408,-0.213176,0.123272,1.143961,1016.549561
840177,0.078078,-0.093106,0.013509,0.953319796,0.099394898,0.019472143,-0.211017,0.122678,1.134915,1016.549561
840277,0.100452,-0.113491,0.010912,0.95250102,0.090527755,0.024047143,-0.2093,0.117776,1.122141,1016.547302
840377,0.11178,-0.124098,0.010071,0.948415612,0.082697857,0.032849694,-0.204962,0.113171,1.10237,1016.547302
840477,0.117281,-0.127061,0.011183,0.946289796,0.077399184,0.040236122,-0.206662,0.110984,1.086223,1016.547302
840577,0.112303,-0.133875,0.016356,0.940863571,0.071788878,0.044403163,-0.204831,0.107367,1.067502,1016.547302
840677,0.109072,-0.141291,0.023944,0.943376735,0.062007857,0.040774796,-0.200495,0.106226,1.048409,1016.547302
840777,0.098687,-0.151318,0.035343,0.95397949,0.051898878,0.043444592,-0.193578,0.10429,1.024268,1016.547302
840877,0.104049,-0.151667,0.047812,0.972046633,0.046826429,0.045764184,-0.190728,0.103197,1.004675,1016.547302
840977,0.131387,-0.135574,0.060129,0.980805204,0.045125102,0.035641735,-0.188293,0.10183,0.980558,1016.547302
841077,0.156802,-0.128632,0.059679,0.977902347,0.045720204,0.029333265,-0.189469,0.103669,0.963615,1016.547302
841177,0.173032,-0.151844,0.049735,0.980248673,0.031036327,0.027435816,-0.185671,0.1069,0.94725,1016.547302
841277,0.197701,-0.170308,0.037699,0.991654694,0.019898265,0.02795949,-0.183825,0.111255,0.928935,1016.547302
841377,0.218059,-0.181859,0.024906,1.002450204,0.022436122,0.035597347,-0.184475,0.118614,0.911272,1016.547302
841477,0.226175,-0.192294,0.018405,1.012465204,0.025184184,0.038686837,-0.184624,0.122005,0.892906,1016.547302
841577,0.235123,-0.204773,0.015846,1.023344898,0.028182755,0.03987602,-0.186785,0.130337,0.876293,1016.547302
841677,0.252826,-0.210309,0.01364,1.029786122,0.041409082,0.042520918,-0.189558,0.136892,0.865601,1016.547302
841777,0.28073,-0.210633,0.00136,1.02591602,0.055750714,0.042992551,-0.190716,0.149194,0.849192,1016.547302
841877,0.300827,-0.213047,-0.014087,1.025204286,0.06950449,0.051868163,-0.190002,0.155695,0.838501,1016.549011
841977,0.304513,-0.210377,-0.033874,1.031227041,0.090721429,0.066728571,-0.193669,0.162531,0.822311,1016.549011
842077,0.291722,-0.19405,-0.053819,1.043877143,0.110777959,0.080374898,-0.191971,0.167996,0.81207,1016.549011
842177,0.266322,-0.171634,-0.072831,1.057292245,0.130367959,0.083617143,-0.189389,0.177615,0.808555,1016.549011
842277,0.244563,-0.153764,-0.084532,1.056620306,0.146278163,0.080653571,-0.192292,0.178876,0.804106,1016.549011
842377,0.235888,-0.155184,-0.097798,1.040980918,0.153281837,0.069518163,-0.190249,0.186414,0.802489,1016.549011
842477,0.244905,-0.175406,-0.113789,1.020316735,0.140160102,0.067891122,-0.1862,0.190979,0.79972,1016.549011
842577,0.263286,-0.203468,-0.132556,0.99722051,0.119308265,0.06715551,-0.184185,0.193487,0.798848,1016.549011
842677,0.278882,-0.22625,-0.152821,0.976868776,0.091600102,0.065297653,-0.181756,0.194774,0.802423,1016.549011
842777,0.278427,-0.230827,-0.162896,0.958843061,0.069257449,0.064663367,-0.177233,0.196294,0.800502,1016.549011
842877,0.275668,-0.217757,-0.162982,0.946518878,0.046286327,0.068263776,-0.174778,0.197154,0.802553,1016.549011
842977,0.263648,-0.195922,-0.150301,0.941154694,0.027554796,0.067099388,-0.168663,0.201382,0.795761,1016.549011
843077,0.250422,-0.176024,-0.127396,0.945585204,0.021546735,0.067969592,-0.164704,0.202742,0.797338,1016.549011
843177,0.229896,-0.1745,-0.095336,0.955467245,0.030154592,0.067852041,-0.165135,0.203915,0.79389,1016.549011
843277,0.203372,-0.19019,-0.069406,0.97114898,0.052542449,0.067232959,-0.165533,0.208149,0.789094,1016.549011
843377,0.170251,-0.199415,-0.058115,0.98609,0.074307551,0.062894898,-0.161045,0.211067,0.789248,1016.549011
843477,0.146376,-0.205006,-0.059753,0.985081327,0.093001837,0.057968673,-0.163009,0.211171,0.787748,1016.549011
843577,0.127117,-0.201141,-0.068257,0.983066122,0.107447857,0.04962051,-0.159994,0.215656,0.786978,1016.549011
843677,0.112362,-0.187591,-0.083648,0.987758776,0.108313163,0.033588367,-0.160987,0.217166,0.787054,1016.549011
843777,0.089301,-0.18505,-0.099362,0.987759388,0.104548265,0.029357041,-0.157442,0.21875,0.784133,1016.549011
843877,0.076462,-0.197531,-0.110474,0.992304796,0.098200102,0.033112857,-0.15997,0.22415,0.78691,1016.549011
843977,0.072084,-0.217244,-0.117358,0.995973571,0.099144082,0.047556429,-0.158878,0.225371,0.781963,1016.549011
844077,0.064364,-0.228701,-0.122304,1.003629388,0.10505551,0.065012653,-0.161266,0.226174,0.77649,1016.549011
844177,0.051174,-0.225756,-0.123137,1.00763449,0.111477245,0.07570051,-0.157204,0.227798,0.772569,1016.549011
844277,0.032871,-0.20944,-0.130551,1.007401633,0.115009082,0.080364388,-0.159145,0.225483,0.769443,1016.549011
844377,0.019529,-0.185539,-0.141551,1.010452857,0.118255,0.087486122,-0.157537,0.226745,0.763496,1016.549011
844477,0.016966,-0.164173,-0.157511,1.010001327,0.127817653,0.08373602,-0.15649,0.223884,0.760345,1016.549011
844577,0.00303,-0.151514,-0.174421,1.001058878,0.13403949,0.074532449,-0.155907,0.219633,0.755119,1016.549011
844677,-0.00963,-0.145521,-0.185607,0.998148265,0.132628571,0.069767449,-0.154843,0.215824,0.750918,1016.549011
844777,-0.019664,-0.14702,-0.192637,0.995142245,0.122696531,0.07033102,-0.153843,0.212843,0.750266,1016.549011
844877,-0.021767,-0.144543,-0.195111,0.991769184,0.106700918,0.075713367,-0.153372,0.207805,0.751011,1016.549011
844977,-0.024796,-0.150451,-0.190746,0.99289551,0.090015408,0.075838469,-0.152346,0.203899,0.748809,1016.549011
845077,-0.03148,-0.146938,-0.181266,0.991462755,0.081452143,0.079051735,-0.154351,0.196458,0.748427,1016.549011
845177,-0.049805,-0.134489,-0.168337,0.983878367,0.08410051,0.078376735,-0.151366,0.194417,0.748327,1016.549011
845277,-0.075086,-0.124493,-0.159606,0.974205,0.094494388,0.072139796,-0.152349,0.191492,0.747175,1016.549011
845377,-0.090694,-0.121295,-0.155753,0.964098367,0.10481398,0.066370612,-0.149865,0.187965,0.746997,1016.549011
845477,-0.091294,-0.119893,-0.155421,0.961035306,0.111691735,0.062397041,-0.149266,0.181769,0.74067,1016.549011
845577,-0.086498,-0.112041,-0.158661,0.965757041,0.10623949,0.054913265,-0.146228,0.183336,0.738248,1016.549011
845677,-0.080458,-0.109234,-0.159929,0.975840612,0.091596735,0.055128776,-0.15067,0.17558,0.734841,1016.549011
845777,-0.074782,-0.100529,-0.157978,0.990053776,0.077196837,0.066951735,-0.14466,0.178049,0.73347,1016.549011
845877,-0.068251,-0.083967,-0.14793,1.009027245,0.068106429,0.08476051,-0.147133,0.177638,0.732445,1016.549011
845977,-0.065502,-0.065658,-0.133673,1.02707102,0.072602755,0.097578571,-0.145643,0.18058,0.733097,1016.549011
846077,-0.064635,-0.042917,-0.121861,1.037635408,0.076690204,0.103382041,-0.141753,0.178781,0.73802,1016.549011
846177,-0.072584,-0.032069,-0.10827,1.046015306,0.080641429,0.103999286,-0.143778,0.181706,0.740172,1016.549011
846277,-0.074855,-0.013437,-0.09999,1.048893878,0.091647041,0.107430918,-0.140902,0.185829,0.746899,1016.549011
846377,-0.069702,0.005029,-0.095531,1.034787041,0.101757959,0.107567449,-0.135507,0.190484,0.752152,1016.549011
846477,-0.077059,0.015238,-0.09538,1.021227449,0.097694286,0.104266531,-0.133068,0.192791,0.755279,1016.549011
846577,-0.084777,0.028831,-0.095228,1.023822551,0.095128571,0.106749388,-0.132204,0.196898,0.763005,1016.549011
846677,-0.088305,0.05921,-0.098234,1.039882041,0.10946449,0.10476398,-0.122308,0.201031,0.767235,1016.549011
846777,-0.103891,0.087024,-0.097724,1.04897898,0.122023571,0.088904286,-0.114902,0.205204,0.771465,1016.549011
846877,-0.112892,0.085594,-0.092136,1.047866531,0.138004082,0.058563469,-0.112582,0.208195,0.781139,1016.549011
846977,-0.094581,0.065096,-0.082063,1.035746224,0.14556398,0.030247041,-0.103654,0.212914,0.783895,1016.549011
847077,-0.058506,0.03015,-0.078864,1.023167449,0.127495,0.004991429,-0.097815,0.213455,0.791445,1016.549011
847177,-0.016882,0.004385,-0.080153,1.026458163,0.090546327,-0.006056224,-0.090963,0.222948,0.799452,1016.549011
847277,0.025798,-0.014138,-0.074173,1.03803,0.061994592,-0.021025714,-0.086966,0.224403,0.79903,1016.549011
847377,0.058886,-0.032597,-0.059864,1.049767347,0.060647245,-0.042396327,-0.083,0.22925,0.800785,1016.549011
847477,0.084051,-0.051019,-0.038983,1.05617949,0.079130102,-0.052737041,-0.083401,0.231492,0.795888,1016.549011
847577,0.107743,-0.064513,-0.019681,1.069492449,0.105568163,-0.050332857,-0.079799,0.239175,0.790772,1016.549011
847677,0.13269,-0.070929,-0.003745,1.092659286,0.135857755,-0.050606939,-0.080194,0.244904,0.786053,1016.549011
847777,0.15778,-0.076588,-0.002271,1.110585,0.15958551,-0.058500918,-0.076544,0.248247,0.77771,1016.549011
847877,0.181968,-0.083172,-0.006293,1.11266949,0.168489286,-0.068632857,-0.075527,0.254733,0.777541,1016.549011
847977,0.200654,-0.077273,-0.012271,1.095419592,0.15428051,-0.059500204,-0.075788,0.26329,0.765952,1016.549011
848077,0.204981,-0.05851,-0.011498,1.080482041,0.133609286,-0.038395612,-0.071764,0.274236,0.765512,1016.549011
848177,0.184031,-0.038897,-0.003628,1.068770714,0.115553878,-0.021347959,-0.065204,0.280305,0.761821,1016.549011
848277,0.147129,-0.012518,0.015833,1.064301122,0.10293398,-0.013964592,-0.06273,0.297085,0.765184,1016.549011
848377,0.109565,0.024037,0.04018,1.060417755,0.103813878,-0.013589286,-0.056644,0.305701,0.76062,1016.549011
848477,0.081838,0.061997,0.073099,1.054295918,0.104839388,-0.020642347,-0.051053,0.321774,0.756937,1016.549011
848577,0.068859,0.09783,0.098402,1.052716531,0.100988061,-0.037021633,-0.03899,0.340709,0.753907,1016.549011
848677,0.05577,0.133071,0.111902,1.05170398,0.100713469,-0.053555306,-0.030406,0.35377,0.749572,1016.549011
848777,0.033859,0.161831,0.121142,1.053083163,0.118529286,-0.076388367,-0.020332,0.37473,0.746644,1016.549011
848877,0.026485,0.17587,0.123354,1.053628367,0.147898163,-0.088441224,-0.009252,0.395698,0.743216,1016.549011
848977,0.022305,0.188307,0.113226,1.046875306,0.174461837,-0.109961837,0.00285,0.415727,0.738238,1016.549011
849077,0.01689,0.179119,0.100721,1.02042551,0.198934898,-0.150973265,0.01639,0.435089,0.736234,1016.549011
849177,-0.000499,0.13823,0.090626,0.982809694,0.212148571,-0.187143673,0.026507,0.454674,0.730731,1016.549011
849277,-0.019963,0.07266,0.073124,0.943994082,0.224053469,-0.199319388,0.034685,0.472444,0.722126,1016.549011
849377,-0.039278,0.01932,0.058261,0.906821224,0.222637755,-0.182407857,0.043481,0.49002,0.706998,1016.549011
849477,-0.062502,0.004909,0.051848,0.867404592,0.217779694,-0.155496939,0.053403,0.501963,0.68407,1016.549011
849577,-0.09384,0.007248,0.048069,0.833107347,0.22303449,-0.144143061,0.06085,0.517955,0.660843,1016.549011
849677,-0.136985,0.019077,0.052263,0.816470408,0.238281939,-0.155407245,0.066526,0.528104,0.624791,1016.549011
849777,-0.171458,0.030757,0.052981,0.814143061,0.26025898,-0.169167857,0.072696,0.536252,0.588637,1016.549011
849877,-0.18397,0.049525,0.043942,0.821344286,0.285713571,-0.17927102,0.074856,0.545886,0.554058,1016.549011
849977,-0.159116,0.068348,0.018425,0.839976531,0.293965306,-0.167384184,0.078046,0.548151,0.516598,1016.544983
850077,-0.089519,0.094119,-0.025596,0.889176327,0.272325306,-0.148104592,0.071167,0.553274,0.485286,1016.544983
850177,0.000822,0.117839,-0.077218,0.964615408,0.235045102,-0.122510102,0.069161,0.560022,0.460075,1016.544983
850277,0.081863,0.12012,-0.122827,1.039769082,0.19885898,-0.10453602,0.064647,0.556845,0.434355,1016.544983
850377,0.120982,0.101514,-0.159585,1.09151949,0.178232755,-0.105866224,0.059986,0.559736,0.417462,1016.544983
850477,0.113875,0.06024,-0.186244,1.116587551,0.173337959,-0.104670408,0.055277,0.562008,0.403042,1016.544983
850577,0.096933,0.015745,-0.198855,1.115602449,0.183922653,-0.103322551,0.055468,0.564981,0.393173,1016.544983
850677,0.077627,-0.023743,-0.200766,1.096250408,0.194832245,-0.085833673,0.04654,0.565718,0.391196,1016.544983
850777,0.057908,-0.036373,-0.194022,1.068803878,0.204351939,-0.070061327,0.047729,0.57017,0.381404,1016.544983
850877,0.027644,-0.0298,-0.181522,1.047,0.210477347,-0.068858061,0.046811,0.572371,0.377506,1016.544983
850977,-0.022083,-0.018794,-0.16625,1.020634388,0.217759898,-0.074974286,0.049915,0.579564,0.372365,1016.544983
851077,-0.073785,-0.008041,-0.154831,0.997456939,0.220518673,-0.077242449,0.04994,0.5831,0.371543,1016.544983
851177,-0.107461,0.005502,-0.14463,0.98024898,0.218649898,-0.078491327,0.056827,0.591692,0.377501,1016.544983
851277,-0.115504,0.020699,-0.136556,0.966130102,0.207403061,-0.080608673,0.066252,0.595407,0.380206,1016.544983
851377,-0.106776,0.024133,-0.127652,0.961752857,0.188664388,-0.07561398,0.072703,0.602681,0.382588,1016.544983
851477,-0.094315,0.020166,-0.109637,0.956548571,0.167453163,-0.05631051,0.087501,0.60901,0.391445,1016.544983
851577,-0.071561,0.017486,-0.092399,0.943505816,0.157304694,-0.038096531,0.098979,0.615828,0.391304,1016.544983
851677,-0.045246,0.009196,-0.07959,0.927767449,0.156235204,-0.03681551,0.10731,0.621785,0.399634,1016.544983
851777,-0.042824,-0.003691,-0.066067,0.917472449,0.159655306,-0.04458898,0.116253,0.62456,0.401289,1016.544983
851877,-0.054575,-0.009749,-0.057706,0.905709184,0.180380408,-0.039975714,0.115754,0.62407,0.401263,1016.544983
851977,-0.069079,0.002385,-0.053035,0.885014796,0.205243469,-0.034570204,0.122395,0.628362,0.392972,1016.544983
852077,-0.087436,0.01776,-0.054416,0.872911224,0.219419388,-0.034130918,0.124442,0.627478,0.389923,1016.544983
852177,-0.100203,0.028595,-0.058915,0.878688673,0.223014184,-0.025308776,0.124974,0.626072,0.387848,1016.544983
852277,-0.080708,0.059214,-0.061848,0.900752449,0.225270816,-0.02055949,0.127046,0.623766,0.383223,1016.544983
852377,-0.041571,0.103958,-0.063775,0.920445918,0.221827347,-0.027978061,0.126943,0.623003,0.388695,1016.544983
852477,-0.001284,0.13453,-0.05914,0.926201633,0.216100714,-0.036012347,0.126474,0.618623,0.386467,1016.544983
852577,0.031609,0.145941,-0.053636,0.927873163,0.203421327,-0.024707653,0.127772,0.617595,0.396939,1016.544983
852677,0.053953,0.155155,-0.047683,0.934289388,0.193994388,-0.004165816,0.124073,0.612637,0.407704,1016.544983
852777,0.065172,0.162899,-0.039328,0.941257959,0.188499592,0.010653163,0.129324,0.609481,0.419574,1016.544983
852877,0.07546,0.168846,-0.032529,0.953073163,0.178095102,0.016938367,0.128157,0.607569,0.428494,1016.544983
852977,0.091453,0.181098,-0.020904,0.973288776,0.167245,0.015872653,0.127082,0.6049,0.432366,1016.544983
853077,0.112073,0.196364,-0.001045,0.98874102,0.166757755,0.010497959,0.122486,0.598728,0.437557,1016.544983
853177,0.126976,0.209096,0.018742,0.989659388,0.181947755,0.010216224,0.124477,0.603156,0.438286,1016.544983
853277,0.122289,0.214319,0.033665,0.979187755,0.19919051,0.014087245,0.122907,0.601991,0.442233,1016.544983
853377,0.098819,0.211503,0.044823,0.960116429,0.214218571,0.021382959,0.12888,0.604861,0.442888,1016.544983
853477,0.070884,0.215462,0.059411,0.944246939,0.218414898,0.024268265,0.127932,0.610952,0.441193,1016.544983
853577,0.047828,0.222637,0.073467,0.936790408,0.204583571,0.024516939,0.134374,0.618203,0.444075,1016.544983
853677,0.036619,0.225247,0.090931,0.942989592,0.179216531,0.023207551,0.142833,0.623501,0.445357,1016.544983
853777,0.038555,0.214918,0.114717,0.95618551,0.156446633,0.026161939,0.146259,0.630726,0.449737,1016.544983
853877,0.047311,0.18747,0.140475,0.960817653,0.145764286,0.034953163,0.153199,0.632512,0.45184,1016.544983
853977,0.05177,0.1547,0.158303,0.962265204,0.152836939,0.046631224,0.155133,0.636298,0.455543,1016.544983
854077,0.051,0.142699,0.164419,0.958712755,0.167024796,0.058739388,0.159684,0.63789,0.452122,1016.544983
854177,0.045268,0.145957,0.163194,0.941460204,0.186110102,0.073322347,0.162687,0.645814,0.452529,1016.544983
854277,0.038079,0.170483,0.155781,0.932565,0.198502245,0.06758898,0.163826,0.648152,0.445134,1016.544983
854377,0.028913,0.185023,0.153138,0.931098163,0.204030816,0.046197551,0.163858,0.650716,0.443762,1016.544983
854477,0.018409,0.165828,0.155871,0.944952449,0.192407041,0.033816429,0.16736,0.648217,0.442636,1016.544983
854577,0.011296,0.135176,0.165063,0.969843571,0.175926837,0.044117959,0.166776,0.647012,0.447083,1016.544983
854677,0.02312,0.110847,0.180866,0.984857347,0.158663571,0.077949592,0.162097,0.641121,0.456798,1016.544983
854777,0.040798,0.10492,0.198195,0.987993878,0.14716602,0.111333878,0.161505,0.64039,0.461771,1016.544983
854877,0.055624,0.124097,0.202551,0.993970714,0.142412347,0.139755,0.162766,0.639266,0.474241,1016.544983
854977,0.059837,0.154427,0.200777,0.987657857,0.151122449,0.152381224,0.164567,0.635763,0.484085,1016.544983
855077,0.051484,0.182078,0.193316,0.972640306,0.163085204,0.154158673,0.167425,0.635877,0.491109,1016.544983
855177,0.043461,0.20223,0.19015,0.955575612,0.163183265,0.152761327,0.177765,0.640356,0.498363,1016.544983
855277,0.041519,0.202968,0.193226,0.947239796,0.152161327,0.151094388,0.181582,0.645316,0.50814,1016.544983
855377,0.048899,0.184331,0.199974,0.946483469,0.14076,0.147305816,0.193886,0.649691,0.516895,1016.544983
855477,0.052453,0.157073,0.203604,0.942942653,0.130241837,0.148174796,0.201858,0.656017,0.517727,1016.544983
855577,0.059173,0.135089,0.203266,0.93684,0.122851939,0.155913776,0.214831,0.662811,0.517587,1016.544983
855677,0.070859,0.119359,0.198294,0.925379082,0.122995204,0.161885612,0.230824,0.671623,0.516051,1016.544983
855777,0.08463,0.103092,0.194388,0.926822245,0.123858061,0.169068571,0.242819,0.67848,0.51491,1016.544983
855877,0.098915,0.096451,0.190995,0.941716735,0.122311837,0.179464592,0.261329,0.691785,0.512603,1016.544983
855977,0.121569,0.10925,0.182356,0.96708449,0.127377755,0.186479082,0.277894,0.705739,0.507822,1016.544983
856077,0.137694,0.143249,0.173298,1.001578061,0.135104796,0.186695102,0.292604,0.71909,0.495492,1016.544983
856177,0.145061,0.205165,0.154246,1.052729286,0.150924592,0.178543367,0.314126,0.734388,0.492287,1016.544983
856277,0.140364,0.278703,0.126086,1.105674694,0.193150306,0.151333163,0.325712,0.749916,0.487581,1016.544983
856377,0.128497,0.300824,0.101029,1.116895612,0.25395898,0.102966735,0.344669,0.765559,0.4884,1016.544983
856477,0.091629,0.244457,0.074388,1.096769694,0.285738571,0.048125,0.359523,0.777489,0.495037,1016.542786
856577,0.008787,0.152765,0.043304,1.091502653,0.279303367,0.028907959,0.371453,0.789136,0.498149,1016.542786
856677,-0.102087,0.058132,0.012284,1.109894796,0.269441122,0.022454898,0.385759,0.799459,0.507209,1016.542786
856777,-0.215261,-0.010634,-0.014862,1.132129592,0.260172653,0.024426531,0.397559,0.811267,0.517344,1016.542786
856877,-0.270886,-0.028274,-0.038474,1.172409592,0.241512755,0.033571429,0.415298,0.81693,0.528676,1016.542786
856977,-0.245226,-0.003549,-0.049575,1.205832245,0.223611735,0.027152551,0.427943,0.832299,0.547511,1016.542786
857077,-0.176221,-0.004689,-0.052018,1.207502245,0.220076531,0.016466122,0.443927,0.842767,0.573616,1016.542786
857177,-0.146077,-0.068256,-0.052797,1.176077653,0.218571122,-0.012668265,0.455271,0.853396,0.608241,1016.542786
857277,-0.219065,-0.185849,-0.062289,1.139732653,0.198133265,-0.021971633,0.457918,0.855135,0.653928,1016.542786
857377,-0.343434,-0.268957,-0.069324,1.129426837,0.167250918,-0.013167755,0.466046,0.847369,0.698134,1016.542786
857477,-0.429502,-0.282446,-0.072657,1.116602653,0.142938367,-0.010907755,0.461152,0.831692,0.744928,1016.542786
857577,-0.434627,-0.261458,-0.075476,1.089606327,0.150879796,-0.004248367,0.446608,0.810227,0.800936,1016.542786
857677,-0.372933,-0.215313,-0.089815,1.05881898,0.168971327,0.018602041,0.428789,0.788375,0.845397,1016.542786
857777,-0.270725,-0.152405,-0.111411,1.024241735,0.188613061,0.040434286,0.41394,0.765929,0.890833,1016.542786
857877,-0.135687,-0.085974,-0.147653,0.983478673,0.19684949,0.06023898,0.398208,0.745283,0.930347,1016.542786
857977,-0.021049,-0.025385,-0.179624,0.935535918,0.190098469,0.063426939,0.387918,0.729412,0.972616,1016.542786
858077,0.072146,0.038739,-0.20452,0.883982143,0.160451224,0.037517959,0.381302,0.713966,1.00489,1016.546204
858177,0.15526,0.078214,-0.219176,0.841968469,0.115667143,-0.015642857,0.379636,0.70729,1.040122,1016.546204
858277,0.228434,0.097011,-0.222699,0.826968367,0.069328061,-0.084004592,0.376619,0.698033,1.067204,1016.546204
858377,0.272922,0.084498,-0.209289,0.837708673,0.029414184,-0.14795398,0.376822,0.693791,1.08252,1016.546204
858477,0.293107,0.045742,-0.180919,0.852918367,0.016772041,-0.188057449,0.376332,0.68291,1.080462,1016.546204
858577,0.28274,-0.002494,-0.144974,0.862547857,0.026989388,-0.20351449,0.37064,0.6768,1.06411,1016.546204
858677,0.250482,-0.052051,-0.118038,0.880373469,0.044943061,-0.209262143,0.358211,0.662484,1.033805,1016.546204
858777,0.200451,-0.103857,-0.093282,0.915613163,0.064902959,-0.195052857,0.344018,0.64185,0.990148,1016.546204
858877,0.146947,-0.12097,-0.077673,0.965889898,0.088038163,-0.149760204,0.322845,0.623295,0.947091,1016.546204
858977,0.093284,-0.083285,-0.071317,1.018784388,0.127245408,-0.084678776,0.297441,0.604963,0.890512,1016.546204
859077,0.037997,-0.030034,-0.073568,1.075465204,0.167461224,-0.045591327,0.269165,0.586181,0.85445,1016.546204
859177,-0.008506,0.022596,-0.076587,1.118629796,0.21339949,-0.029401122,0.248876,0.577238,0.818898,1016.546204
859277,-0.031095,0.059569,-0.088369,1.141288061,0.264524184,-0.018539184,0.224716,0.565868,0.803761,1016.546204
859377,-0.036931,0.0869,-0.117182,1.123572653,0.296021633,-0.027676939,0.20881,0.559266,0.800902,1016.546204
859477,-0.040166,0.052198,-0.154457,1.084853571,0.289880714,-0.065166633,0.192876,0.547136,0.798762,1016.546204
859577,-0.036846,-0.021239,-0.175164,1.047884592,0.249297449,-0.071007755,0.180712,0.538848,0.808848,1016.546204
859677,-0.005562,-0.083318,-0.172577,1.013930306,0.200439796,-0.040423163,0.168062,0.527627,0.817782,1016.547974
859777,0.049507,-0.11143,-0.155224,0.988653776,0.151151531,-0.001086939,0.156929,0.512967,0.825038,1016.547974
859877,0.095331,-0.09246,-0.124476,0.970619694,0.10886602,0.024686837,0.14228,0.497792,0.833768,1016.547974
859977,0.124604,-0.055258,-0.077299,0.951706429,0.081550204,0.035285,0.13719,0.483205,0.837528,1016.547974
860077,0.131482,-0.018575,-0.024658,0.927464898,0.073624184,0.034590102,0.128471,0.467317,0.848733,1016.547974
860177,0.123823,0.019901,0.031765,0.91083551,0.078750714,0.02281449,0.120359,0.455671,0.854644,1016.547974
860277,0.107891,0.058361,0.083495,0.908407653,0.092012143,0.008924286,0.113221,0.44147,0.861428,1016.547974
860377,0.087236,0.08275,0.126406,0.914834592,0.115755612,-0.013529592,0.11213,0.429834,0.864842,1016.547974
860477,0.064338,0.083522,0.151951,0.91441398,0.140948571,-0.024189184,0.105535,0.419707,0.869829,1016.547974
860577,0.042869,0.063566,0.16275,0.918468776,0.165242653,-0.027509082,0.104565,0.41384,0.867525,1016.547974
860677,0.027781,0.03609,0.154773,0.924856939,0.175446224,-0.032168163,0.100023,0.406816,0.869667,1016.547974
860777,0.019819,0.001766,0.135952,0.926501633,0.172466633,-0.028556531,0.100127,0.402621,0.863441,1016.547974
860877,0.017207,-0.039952,0.114636,0.93110949,0.163982755,-0.025226735,0.093686,0.396367,0.860609,1016.547974
860977,0.011214,-0.075179,0.098426,0.933607041,0.151512653,-0.01608898,0.091866,0.393867,0.85096,1016.547974
861077,0.003068,-0.100133,0.090823,0.92835602,0.139467959,-0.008539082,0.09098,0.388217,0.844157,1016.547974
861177,-0.013435,-0.113299,0.085983,0.914580102,0.134438265,0.004359694,0.088775,0.387508,0.828586,1016.547974
861277,-0.028406,-0.116226,0.083607,0.90098051,0.135242755,0.021031837,0.089507,0.383144,0.815337,1016.547974
861377,-0.037473,-0.095388,0.080546,0.904462245,0.134207245,0.03546551,0.086703,0.383175,0.805315,1016.547974
861477,-0.040695,-0.057114,0.079894,0.919730816,0.128097857,0.037888571,0.084971,0.378424,0.790541,1016.547974
861577,-0.03899,-0.037929,0.081376,0.930402143,0.127398367,0.029339388,0.086142,0.377372,0.780969,1016.547974
861677,-0.042731,-0.04276,0.082904,0.929130918,0.124719286,0.02961398,0.084841,0.376905,0.770422,1016.547974
861777,-0.046869,-0.037261,0.081294,0.936771939,0.110170306,0.045397245,0.0815,0.375851,0.762347,1016.547974
861877,-0.044293,-0.027687,0.070587,0.953182959,0.092774592,0.05769602,0.079668,0.377288,0.753901,1016.547974
861977,-0.028749,-0.014634,0.061045,0.972138163,0.081889898,0.052985102,0.077373,0.377833,0.743404,1016.547974
862077,-0.011781,-0.005802,0.053304,0.983364286,0.083913776,0.04907,0.074519,0.375751,0.735779,1016.547974
862177,0.001596,-0.004097,0.04549,0.985193571,0.093387959,0.058498673,0.068146,0.381077,0.731033,1016.547974
862277,0.004887,-0.00246,0.032436,0.978604082,0.102336837,0.069968571,0.064242,0.379862,0.726457,1016.547974
862377,0.0015,-0.003181,0.017767,0.963769694,0.111294184,0.084007551,0.063325,0.382562,0.722586,1016.547974
862477,0.007583,-0.006949,-0.001215,0.94700602,0.124181633,0.094201633,0.057873,0.382223,0.721059,1016.547974
862577,0.014278,0.00501,-0.017207,0.936762143,0.13105398,0.09429898,0.058971,0.387928,0.716341,1016.547974
862677,0.008773,0.018446,-0.030237,0.928490204,0.12603449,0.083401327,0.057976,0.388442,0.716366,1016.547974
862777,0.002509,0.028408,-0.040177,0.931588367,0.112809286,0.080434184,0.058924,0.38731,0.718814,1016.547974
862877,0.003135,0.043336,-0.040593,0.94249898,0.094215918,0.083613367,0.060883,0.389174,0.720916,1016.547974
862977,0.014018,0.057421,-0.040056,0.957169388,0.083541939,0.093610408,0.057321,0.393996,0.725667,1016.547302
863077,0.032058,0.066345,-0.035073,0.973638367,0.077036327,0.098587755,0.055313,0.395972,0.726768,1016.547302
863177,0.0565,0.064989,-0.030445,0.985071531,0.071266327,0.095506224,0.057707,0.398657,0.732419,1016.547302
863277,0.07813,0.050918,-0.026806,0.993145714,0.066899694,0.092675408,0.05478,0.401838,0.729571,1016.547302
863377,0.101493,0.034383,-0.017707,0.994622653,0.055953163,0.084660816,0.055793,0.40633,0.7293,1016.547302
863477,0.123693,0.033188,-0.009733,1.000422653,0.054212041,0.086273367,0.053886,0.412533,0.725606,1016.547302
863577,0.130449,0.056009,-4.00E-05,1.013920612,0.057725102,0.089090714,0.051404,0.417555,0.72586,1016.547302
863677,0.110884,0.096879,0.014707,1.035948571,0.084056429,0.100167653,0.052955,0.42363,0.723666,1016.547302
863777,0.064606,0.135212,0.031389,1.061770306,0.118703571,0.11803551,0.048965,0.426161,0.724292,1016.547302
863877,0.010414,0.157795,0.040439,1.090486122,0.151965204,0.138674796,0.042971,0.432162,0.726094,1016.547302
863977,-0.044338,0.162838,0.045236,1.116270816,0.186995714,0.155897551,0.050345,0.439726,0.7325,1016.547302
864077,-0.098019,0.156911,0.040868,1.123573776,0.21407551,0.17882551,0.053138,0.444629,0.743776,1016.547302
864177,-0.133906,0.156795,0.022603,1.112126122,0.221157041,0.211633163,0.059909,0.449944,0.755579,1016.547302
864277,-0.144145,0.185835,-0.012153,1.096063469,0.201948367,0.241837449,0.067536,0.455379,0.774904,1016.547302
864377,-0.135092,0.239688,-0.054145,1.084418776,0.166682755,0.243547755,0.07799,0.463323,0.80338,1016.547302
864477,-0.117581,0.294295,-0.085212,1.087012551,0.12874602,0.22623051,0.091521,0.473927,0.827484,1016.547302
864577,-0.100552,0.33224,-0.092629,1.095801429,0.104126122,0.177794796,0.106349,0.477549,0.861255,1016.549011
864677,-0.09459,0.312246,-0.073708,1.064214286,0.083657755,0.11496398,0.119303,0.485477,0.889231,1016.549011
864777,-0.077372,0.244185,-0.036323,1.032583571,0.053179388,0.086626633,0.127671,0.493212,0.922704,1016.549011
864877,-0.021218,0.204809,-0.013014,1.049001837,0.025111531,0.096267959,0.132974,0.499307,0.960098,1016.549011
864977,0.04882,0.1925,0.002407,1.09404551,0.016387245,0.075672245,0.136994,0.504983,0.985945,1016.549011
865077,0.097631,0.150942,0.028257,1.121268878,0.043643265,0.008355102,0.139422,0.512908,1.017416,1016.549011
865177,0.119311,0.050429,0.061488,1.122378163,0.079189694,-0.053448673,0.136059,0.521411,1.03889,1016.549011
865277,0.150371,-0.071017,0.089596,1.121432143,0.09453102,-0.060355816,0.129767,0.532098,1.057465,1016.549011
865377,0.190095,-0.14872,0.096407,1.143222347,0.103161531,-0.020572449,0.126477,0.540295,1.074915,1016.549011
865477,0.198092,-0.162518,0.080301,1.155039082,0.128463163,0.016763673,0.121355,0.543974,1.083113,1016.549011
865577,0.172314,-0.148325,0.047545,1.139145408,0.174819796,0.015757041,0.117861,0.555915,1.085222,1016.549011
865677,0.142734,-0.127604,0.016804,1.120934694,0.218244082,-0.011205102,0.11428,0.565646,1.091726,1016.549011
865777,0.122825,-0.100646,-0.002857,1.094283367,0.255617755,-0.023698061,0.121287,0.579011,1.091914,1016.549011
865877,0.10142,-0.071217,-0.014923,1.05892102,0.275461939,-0.026134592,0.122212,0.59121,1.097548,1016.549011
865977,0.053605,-0.044358,-0.018565,1.020111735,0.267475816,-0.022205714,0.128235,0.601152,1.096558,1016.549011
866077,-0.030911,-0.022985,-0.011932,0.993458367,0.236794694,-0.022328367,0.13403,0.612983,1.108191,1016.549011
866177,-0.12507,-7.20E-05,0.003284,0.965166735,0.201565102,-0.036720306,0.142861,0.620427,1.116597,1016.550781
866277,-0.197172,-0.000267,0.028203,0.915414796,0.168867857,-0.071023367,0.15267,0.627808,1.126003,1016.550781
866377,-0.262458,-0.025735,0.05248,0.865782347,0.147425408,-0.107239694,0.157945,0.632647,1.13778,1016.550781
866477,-0.333637,-0.038429,0.074737,0.826375306,0.129306735,-0.130691224,0.167419,0.637978,1.138062,1016.550781
866577,-0.403276,-0.034062,0.09212,0.810242449,0.118652041,-0.142437653,0.177511,0.637658,1.131042,1016.550781
866677,-0.452473,-0.037646,0.10502,0.816991327,0.141467347,-0.158030408,0.182818,0.633464,1.112797,1016.550781
866777,-0.462996,-0.047625,0.107454,0.855815816,0.190619694,-0.168933163,0.190105,0.627221,1.09495,1016.550781
866877,-0.427749,-0.060445,0.100269,0.912917041,0.24843898,-0.168108673,0.187123,0.619159,1.066478,1016.550781
866977,-0.361693,-0.073972,0.081829,0.960882143,0.301424286,-0.167467041,0.184131,0.605118,1.0377,1016.550781
867077,-0.294098,-0.092439,0.05223,1.004076633,0.318374082,-0.158991224,0.171966,0.590191,1.01989,1016.550781
867177,-0.246101,-0.104367,0.015923,1.049527551,0.305482857,-0.132183367,0.159681,0.570491,1.007849,1016.550781
867277,-0.223608,-0.087688,-0.021774,1.084813367,0.264520918,-0.08086102,0.139788,0.546586,1.002599,1016.550781
867377,-0.218257,-0.051224,-0.052078,1.101499898,0.218467041,-0.04167602,0.119757,0.528774,1.005677,1016.550781
867477,-0.21667,-0.024248,-0.070967,1.094149898,0.173798367,-0.017467245,0.090761,0.506643,1.008024,1016.550781
867577,-0.205137,0.016909,-0.067605,1.083370918,0.136781224,0.009002041,0.07216,0.489136,1.014626,1016.550781
867677,-0.192131,0.077421,-0.051309,1.065580306,0.116108469,0.012898571,0.047523,0.475542,1.024928,1016.550781
867777,-0.17792,0.113185,-0.030179,1.036014388,0.107189592,0.002113878,0.023522,0.466262,1.028436,1016.549011
867877,-0.162323,0.111902,-0.006999,1.009680918,0.108569082,-0.002257245,0.003034,0.456003,1.030396,1016.549011
867977,-0.1474,0.0892,0.013327,0.986417347,0.125078367,0.005413673,-0.008433,0.450206,1.030087,1016.549011
868077,-0.14357,0.065793,0.023794,0.960292143,0.146956531,0.013032653,-0.019303,0.448129,1.024959,1016.549011
868177,-0.14159,0.045199,0.026299,0.930444592,0.156676122,0.017415,-0.026607,0.448681,1.01596,1016.549011
868277,-0.128011,0.036561,0.023402,0.906880102,0.161026429,0.018410612,-0.025509,0.448432,1.010437,1016.549011
868377,-0.105818,0.032434,0.020147,0.896540204,0.157880306,0.016155612,-0.023871,0.456219,1.003821,1016.549011
868477,-0.08448,0.038664,0.020218,0.898041122,0.14790398,0.015710204,-0.022768,0.458959,0.998451,1016.549011
868577,-0.068281,0.046804,0.024229,0.90313898,0.143635816,0.021257041,-0.018694,0.462102,0.994106,1016.549011
868677,-0.062676,0.047982,0.032055,0.910215918,0.140325918,0.025101735,-0.016126,0.469207,0.990964,1016.549011
868777,-0.056691,0.040459,0.040029,0.927395816,0.146006735,0.03745398,-0.012019,0.469954,0.984493,1016.549011
868877,-0.045545,0.030302,0.045283,0.940939388,0.152809184,0.045313265,-0.007435,0.474608,0.979725,1016.549011
868977,-0.03264,0.019908,0.045262,0.938940816,0.163728469,0.05105051,-0.009884,0.477235,0.977852,1016.549011
869077,-0.020124,0.02185,0.03717,0.932202755,0.169875714,0.054825714,-0.007775,0.479984,0.971982,1016.549011
869177,-0.0099,0.027499,0.023321,0.914603265,0.167722347,0.050678163,-0.003635,0.483793,0.964164,1016.549011
869277,5.90E-05,0.026244,0.010657,0.895586939,0.167649388,0.037653776,-0.003632,0.485786,0.964266,1016.549011
869377,0.013632,0.018606,-0.001787,0.88531102,0.165596837,0.034670918,-0.001065,0.486936,0.960319,1016.549011
869477,0.029476,0.001186,-0.011477,0.882987143,0.161845816,0.034359898,-0.004501,0.489603,0.957946,1016.550781
869577,0.040875,-0.015113,-0.013261,0.889369082,0.160066939,0.04728398,-0.002476,0.487177,0.955821,1016.550781
869677,0.044755,-0.011934,-0.012596,0.899150102,0.161962347,0.060107143,-0.003969,0.487699,0.955845,1016.550781
869777,0.050536,-0.003807,-0.00834,0.909979184,0.16230898,0.064124898,-0.004047,0.485513,0.959742,1016.550781
869877,0.058919,0.005968,-0.002488,0.923636224,0.161073367,0.067417347,-0.010092,0.483944,0.963163,1016.550781
869977,0.079684,0.008486,0.001532,0.934708469,0.159866531,0.071957143,-0.011531,0.483614,0.960138,1016.550781
870077,0.111626,0.005473,0.00035,0.937335306,0.162513469,0.078363776,-0.013608,0.483429,0.964636,1016.550781
870177,0.14627,0.000781,-0.005642,0.932507857,0.163361837,0.084607959,-0.012481,0.483751,0.957639,1016.550781
870277,0.167541,-0.005737,-0.015929,0.924735102,0.168417959,0.087156939,-0.014848,0.485598,0.951216,1016.550781
870377,0.168908,-0.017718,-0.028472,0.918965204,0.165283776,0.089229286,-0.007272,0.486741,0.945772,1016.550781
870477,0.158668,-0.024181,-0.029848,0.923605918,0.163317551,0.088539388,-0.006534,0.486363,0.932726,1016.550781
870577,0.142519,-0.022689,-0.021619,0.933602449,0.16239898,0.087025612,0.001657,0.490278,0.921411,1016.550781
870677,0.124859,-0.012599,-0.002953,0.94669102,0.16865051,0.090144694,0.00624,0.489475,0.915864,1016.550781
870777,0.10512,0.0031,0.018427,0.959179286,0.168766122,0.097234388,0.009425,0.490432,0.905394,1016.550781
870877,0.0907,0.019016,0.034715,0.96581449,0.167024286,0.103855816,0.014544,0.489717,0.897848,1016.550781
870977,0.078929,0.032621,0.045615,0.963241837,0.164058571,0.107866633,0.01854,0.490675,0.8974,1016.550781
871077,0.078998,0.035549,0.04449,0.953655204,0.159609592,0.105747755,0.014624,0.492401,0.893976,1016.545044
871177,0.086377,0.041945,0.038633,0.951319694,0.150654184,0.108319898,0.017641,0.492924,0.892503,1016.545044
871277,0.10465,0.062498,0.034921,0.950180918,0.139568776,0.110837959,0.015701,0.491107,0.889403,1016.545044
871377,0.129047,0.086265,0.036056,0.943039694,0.138429082,0.110521531,0.017294,0.494314,0.884557,1016.545044
871477,0.153402,0.099082,0.036862,0.939931531,0.135358878,0.109995408,0.011386,0.49211,0.88043,1016.545044
871577,0.167047,0.102911,0.041686,0.942357449,0.135210102,0.111569286,0.008948,0.490301,0.877329,1016.545044
871677,0.17137,0.088789,0.047554,0.945165408,0.141788265,0.117340306,0.000679,0.487478,0.866153,1016.545044
871777,0.168237,0.070087,0.054334,0.951641837,0.152659184,0.123293469,-0.004805,0.485074,0.866024,1016.545044
871877,0.155004,0.060123,0.062643,0.955878367,0.163989286,0.128830816,-0.011739,0.481319,0.863319,1016.545044
871977,0.138175,0.072744,0.071036,0.957008163,0.173044184,0.133492857,-0.019196,0.474535,0.861462,1016.545044
872077,0.135215,0.096201,0.08155,0.955084796,0.171901224,0.138398367,-0.023203,0.472059,0.862334,1016.545044
872177,0.142614,0.108202,0.094646,0.958200408,0.162663061,0.147623265,-0.027182,0.470651,0.861756,1016.545044
872277,0.160571,0.114189,0.10521,0.973169898,0.150879592,0.158659082,-0.026134,0.468289,0.858631,1016.545044
872377,0.175334,0.128832,0.119459,1.003848571,0.132067245,0.181777347,-0.028195,0.466159,0.862027,1016.545044
872477,0.18531,0.157866,0.136103,1.04595898,0.118709796,0.188279592,-0.025123,0.466328,0.85753,1016.545044
872577,0.204711,0.197947,0.152343,1.098766327,0.126893163,0.176966633,-0.019198,0.468082,0.860632,1016.545044
872677,0.218259,0.237171,0.16616,1.141369592,0.159230714,0.160720816,-0.013811,0.473211,0.866411,1016.545044
872777,0.204101,0.248761,0.17323,1.164571837,0.199210714,0.143950306,-0.005508,0.479095,0.87624,1016.545044
872877,0.145149,0.251787,0.158289,1.186516531,0.221557857,0.142677653,0.00163,0.484065,0.89504,1016.545044
872977,0.061744,0.269526,0.127879,1.230493367,0.228922449,0.135756327,0.013597,0.492531,0.922542,1016.545044
873077,-0.012034,0.280111,0.087443,1.276063776,0.256869388,0.097491837,0.019068,0.499059,0.950939,1016.545044
873177,-0.046657,0.265836,0.046516,1.301756122,0.291924694,0.046085918,0.022249,0.510803,0.996134,1016.545044
873277,-0.045233,0.2242,0.008905,1.298778061,0.31248398,0.008946224,0.021434,0.511673,1.040269,1016.545044
873377,-0.039741,0.155299,-0.031359,1.262687653,0.307627551,-0.019616939,0.013442,0.512124,1.095398,1016.545044
873477,-0.061845,0.064982,-0.06389,1.222745816,0.270834388,-0.036560306,-0.001431,0.513424,1.145552,1016.545044
873577,-0.103954,-0.039649,-0.079979,1.190929388,0.217934184,-0.05182398,-0.019806,0.505812,1.195248,1016.545044
873677,-0.158121,-0.138878,-0.075742,1.163164388,0.167411633,-0.045412551,-0.042976,0.493304,1.234166,1016.545044
873777,-0.199968,-0.223975,-0.059111,1.120192755,0.130061224,-0.029379184,-0.068076,0.479502,1.26951,1016.545044
873877,-0.215491,-0.286139,-0.038371,1.059244082,0.110827041,-0.012291735,-0.092022,0.460637,1.295577,1016.545044
873977,-0.197174,-0.328494,-0.021245,0.991808469,0.095999286,-0.004486735,-0.112314,0.447606,1.313429,1016.545044
874077,-0.1327,-0.348671,-0.014744,0.927497857,0.08723,0.004245,-0.128002,0.428863,1.323979,1016.545044
874177,-0.032143,-0.331926,-0.024142,0.860106735,0.079146531,0.005291429,-0.129672,0.414052,1.331239,1016.545044
874277,0.108381,-0.287254,-0.042049,0.802365,0.07289949,-0.01252102,-0.130157,0.405164,1.329282,1016.546753
874377,0.246044,-0.202877,-0.056945,0.757021531,0.064715918,-0.036984898,-0.115066,0.399358,1.320485,1016.546753
874477,0.35382,-0.076904,-0.061508,0.731828469,0.052503571,-0.070155408,-0.1004,0.393254,1.307664,1016.546753
874577,0.426876,0.059713,-0.055899,0.743739388,0.051059388,-0.118918673,-0.083019,0.392647,1.283603,1016.546753
874677,0.458957,0.154566,-0.039308,0.798653265,0.059971122,-0.157793571,-0.067423,0.384179,1.247113,1016.546753
874777,0.442579,0.205818,-0.01653,0.865583265,0.070170204,-0.183400306,-0.053656,0.3841,1.203033,1016.546753
874877,0.386336,0.191323,0.014421,0.940206327,0.098913061,-0.193160102,-0.047322,0.379776,1.156223,1016.546753
874977,0.28801,0.125942,0.044824,1.027097449,0.139573061,-0.179666633,-0.049891,0.374766,1.10586,1016.546753
875077,0.164527,0.049469,0.064412,1.116480816,0.17620898,-0.141668571,-0.057425,0.36343,1.053666,1016.546753
875177,0.043685,-0.0074,0.064822,1.179513367,0.211978673,-0.097854388,-0.069145,0.358579,1.013323,1016.546753
875277,-0.051684,-0.032514,0.035654,1.199892245,0.234003469,-0.071823776,-0.090421,0.349676,0.977271,1016.546753
875377,-0.094967,-0.04166,-0.006816,1.189611939,0.246895,-0.067865816,-0.102461,0.342511,0.953844,1016.546753
875477,-0.10243,-0.051165,-0.046266,1.141062041,0.247610612,-0.066859796,-0.122614,0.338077,0.938564,1016.546753
875577,-0.085,-0.07745,-0.080737,1.069192755,0.226398469,-0.047855714,-0.139915,0.334729,0.930859,1016.546753
875677,-0.055588,-0.095902,-0.104139,1.014367143,0.18373102,-0.01146898,-0.156771,0.328264,0.925499,1016.546753
875777,-0.021474,-0.106843,-0.113572,0.972770612,0.137168878,0.014703878,-0.170238,0.318512,0.924987,1016.546753
875877,0.019047,-0.113975,-0.109392,0.938790306,0.098977857,0.017657551,-0.181263,0.312563,0.927678,1016.548523
875977,0.059551,-0.126182,-0.097656,0.91277949,0.080160918,0.014249796,-0.181684,0.303844,0.922222,1016.548523
876077,0.088993,-0.133525,-0.072708,0.893508367,0.073222041,0.012178061,-0.184211,0.293871,0.922713,1016.548523
876177,0.099271,-0.119792,-0.043511,0.888200612,0.076120918,0.015295408,-0.184648,0.286598,0.918334,1016.548523
876277,0.091799,-0.094335,-0.015318,0.895503469,0.087380816,0.020799388,-0.180097,0.277277,0.913354,1016.548523
876377,0.06621,-0.049677,0.012487,0.906191224,0.09795051,0.023725408,-0.178064,0.26892,0.909924,1016.548523
876477,0.036266,-0.004432,0.037918,0.920606224,0.104506837,0.025947653,-0.174578,0.257952,0.908366,1016.548523
876577,0.00828,0.032029,0.05647,0.930399184,0.10804898,0.020893673,-0.170512,0.251154,0.903014,1016.548523
876677,-0.016869,0.0449,0.065182,0.942186122,0.107783776,0.012078265,-0.162536,0.244101,0.901661,1016.548523
876777,-0.038649,0.031648,0.067455,0.941509388,0.108689898,-0.001433776,-0.16454,0.237655,0.90133,1016.548523
876877,-0.051555,-0.002242,0.068024,0.934819694,0.10522102,-0.001587755,-0.161,0.231292,0.897503,1016.548523
876977,-0.049495,-0.042542,0.058696,0.921391633,0.090406429,-0.002463469,-0.159925,0.228503,0.892852,1016.548523
877077,-0.039264,-0.052092,0.048925,0.916460918,0.090586939,0.000890306,-0.158414,0.222075,0.891023,1016.548523
877177,-0.030745,-0.039314,0.036216,0.901988265,0.094495408,0.000868163,-0.15683,0.220299,0.885924,1016.548523
877277,-0.028302,-0.04272,0.02717,0.898402959,0.100867857,0.003121327,-0.159236,0.215597,0.880671,1016.548523
877377,-0.03431,-0.047056,0.024393,0.90934949,0.096259592,0.013577959,-0.156571,0.21452,0.871099,1016.548523
877477,-0.044145,-0.057771,0.021121,0.920332653,0.100536531,0.034005306,-0.15589,0.208043,0.860248,1016.548523
877577,-0.04398,-0.09297,0.019346,0.931883673,0.101971531,0.051254898,-0.150277,0.210286,0.853354,1016.548523
877677,-0.042053,-0.117818,0.02276,0.94549551,0.097697857,0.058917449,-0.146627,0.208173,0.844232,1016.548523
877777,-0.050385,-0.122323,0.028655,0.953968163,0.086515918,0.052046735,-0.139492,0.205009,0.83506,1016.548523
877877,-0.055663,-0.120247,0.038672,0.955613265,0.068815408,0.048235306,-0.137428,0.203675,0.830985,1016.548523
877977,-0.045628,-0.11497,0.042733,0.955067653,0.063571939,0.046690612,-0.13634,0.202903,0.825937,1016.548523
878077,-0.026563,-0.118527,0.043813,0.953273265,0.065978469,0.045569898,-0.130746,0.199642,0.819263,1016.548523
878177,-0.008624,-0.126217,0.038374,0.95150398,0.076718776,0.046211327,-0.125661,0.200824,0.813818,1016.548523
878277,-0.000806,-0.12698,0.030868,0.95118398,0.089317143,0.054063061,-0.124094,0.199498,0.809744,1016.548523
878377,0.008088,-0.118903,0.019302,0.966060408,0.09228949,0.055036122,-0.120422,0.199427,0.799723,1016.548523
878477,0.020116,-0.116044,0.016859,0.98221102,0.088471939,0.046671224,-0.119351,0.199604,0.795725,1016.548523
878577,0.037395,-0.122743,0.015312,0.994701837,0.080491122,0.042215612,-0.113197,0.199966,0.786231,1016.548523
878677,0.052634,-0.13556,0.017052,0.999931735,0.074925816,0.042984184,-0.116034,0.201894,0.778309,1016.548523
878777,0.059857,-0.145891,0.014649,1.007761633,0.071803163,0.039528878,-0.114937,0.201146,0.772761,1016.548523
878877,0.046137,-0.15873,0.013725,1.011800816,0.077468673,0.04307,-0.115838,0.202898,0.767838,1016.548523
878977,0.02375,-0.158546,0.011589,1.012579898,0.092044898,0.049273163,-0.120728,0.202221,0.762788,1016.548523
879077,-0.004354,-0.150251,0.011233,0.999449898,0.107644082,0.051106327,-0.124648,0.201955,0.759263,1016.548523
879177,-0.021562,-0.143901,0.005635,0.982212653,0.118236939,0.051396224,-0.12754,0.204236,0.754365,1016.544495
879277,-0.01899,-0.152458,-0.002178,0.967990918,0.117094082,0.038662755,-0.127958,0.202468,0.749765,1016.544495
879377,-0.002952,-0.168227,-0.009381,0.957326224,0.102159388,0.031456429,-0.130317,0.203342,0.742793,1016.544495
879477,0.030883,-0.17462,-0.018602,0.953369796,0.075201837,0.025127857,-0.130649,0.203285,0.733771,1016.544495
879577,0.069389,-0.166493,-0.029012,0.959702347,0.051298469,0.019410612,-0.13341,0.201444,0.721148,1016.544495
879677,0.098647,-0.152956,-0.032431,0.977373061,0.04619051,0.034485306,-0.136222,0.201451,0.711625,1016.544495
879777,0.103048,-0.110805,-0.039399,1.011251633,0.064918469,0.068357449,-0.1415,0.205531,0.701305,1016.544495
879877,0.084425,-0.059184,-0.043826,1.047268367,0.096594286,0.09034398,-0.141886,0.205828,0.695307,1016.544495
879977,0.042641,-0.04079,-0.044063,1.074127755,0.125804592,0.101552143,-0.144253,0.207675,0.688886,1016.544495
880077,0.002837,-0.026208,-0.048047,1.103635714,0.153546224,0.117071224,-0.143161,0.209395,0.683964,1016.544495
880177,-0.033363,0.005667,-0.058283,1.115213367,0.171344184,0.123672245,-0.143762,0.214096,0.690216,1016.544495
880277,-0.056561,0.041438,-0.080752,1.107747143,0.178951224,0.120048878,-0.142811,0.214956,0.692766,1016.544495
880377,-0.057189,0.066993,-0.109543,1.083863776,0.182058061,0.109451429,-0.137083,0.215208,0.706313,1016.544495
880477,-0.047782,0.081724,-0.142541,1.057688673,0.171929796,0.100153469,-0.132905,0.215338,0.722859,1016.544495
880577,-0.047808,0.090148,-0.166119,1.035997857,0.148137551,0.097292959,-0.126165,0.219584,0.73611,1016.544495
880677,-0.063925,0.08209,-0.179093,1.026400102,0.113517449,0.098633571,-0.124617,0.219891,0.760177,1016.544495
880777,-0.082808,0.078044,-0.174474,1.032998571,0.080656327,0.087313061,-0.114496,0.221325,0.7788,1016.546204
880877,-0.094209,0.083779,-0.158108,1.060907857,0.058894592,0.061688878,-0.10949,0.221006,0.804343,1016.546204
880977,-0.093109,0.08626,-0.130095,1.088910918,0.055707347,0.019163163,-0.106364,0.221008,0.823887,1016.546204
881077,-0.083499,0.045741,-0.088532,1.08805449,0.071086429,-0.029134082,-0.108772,0.221949,0.846479,1016.546204
881177,-0.068804,-0.019452,-0.061526,1.087687653,0.083505306,-0.054044286,-0.105158,0.227375,0.867303,1016.546204
881277,-0.028221,-0.073403,-0.053612,1.108317551,0.087490204,-0.052068061,-0.11091,0.230227,0.882473,1016.546204
881377,0.023065,-0.107437,-0.058183,1.140316122,0.103774286,-0.053756633,-0.112191,0.236946,0.898848,1016.546204
881477,0.068551,-0.139266,-0.075154,1.144591837,0.130188367,-0.046385612,-0.120349,0.240552,0.909544,1016.546204
881577,0.109772,-0.159255,-0.09945,1.134298163,0.161069694,-0.025007245,-0.122482,0.250637,0.918574,1016.546204
881677,0.138165,-0.151194,-0.127515,1.121441327,0.179563265,-0.006545204,-0.132586,0.254396,0.926771,1016.546204
881777,0.129381,-0.130271,-0.146585,1.098554082,0.195957551,0.002333469,-0.136184,0.265075,0.934326,1016.546204
881877,0.069097,-0.12539,-0.15536,1.049006939,0.211222653,0.000310714,-0.133737,0.271866,0.937681,1016.546204
881977,-0.016612,-0.130171,-0.152747,0.992652755,0.218521633,-0.004386122,-0.130371,0.276456,0.944933,1016.546204
882077,-0.101908,-0.121115,-0.139711,0.945101429,0.21800949,-0.005692755,-0.122409,0.28226,0.94624,1016.546204
882177,-0.162945,-0.08121,-0.120515,0.89402051,0.210196837,-0.014936327,-0.116951,0.291045,0.948699,1016.546204
882277,-0.214779,-0.034123,-0.095444,0.848865918,0.194854898,-0.035056429,-0.106998,0.296319,0.949981,1016.546204
882377,-0.266306,-0.008558,-0.065376,0.804360102,0.174974898,-0.06592949,-0.095537,0.298131,0.950086,1016.547974
882477,-0.332078,-0.0073,-0.032629,0.781289592,0.168558367,-0.086839796,-0.08293,0.301806,0.942271,1016.547974
882577,-0.385986,-0.0153,-0.002632,0.776544898,0.170593469,-0.100487245,-0.071755,0.303183,0.93083,1016.547974
882677,-0.394646,0.011971,0.014473,0.799212551,0.184977143,-0.10249602,-0.05848,0.302823,0.913289,1016.547974
882777,-0.3656,0.058861,0.017305,0.827581327,0.219219286,-0.123309898,-0.048204,0.306948,0.896977,1016.547974
882877,-0.320084,0.077144,0.005525,0.84383898,0.25341449,-0.15535,-0.042217,0.305694,0.869362,1016.547974
882977,-0.266901,0.04489,-0.009953,0.863577245,0.276047959,-0.172989082,-0.042275,0.30783,0.845922,1016.547974
883077,-0.200289,0.003451,-0.037656,0.898475816,0.28471949,-0.158542959,-0.038763,0.300211,0.816477,1016.547974
883177,-0.134319,-0.027754,-0.076166,0.952782959,0.281713571,-0.132691939,-0.045322,0.298915,0.793857,1016.547974
883277,-0.069765,-0.030288,-0.113932,1.010978469,0.262209898,-0.101024184,-0.051413,0.291085,0.771906,1016.547974
883377,-0.013013,-0.011238,-0.145747,1.068456122,0.24073102,-0.071924592,-0.062653,0.287859,0.759704,1016.547974
883477,0.028555,0.017099,-0.162188,1.106910714,0.221805306,-0.051271122,-0.07742,0.283097,0.749424,1016.547974
883577,0.054293,0.017994,-0.168803,1.121117041,0.209647143,-0.053858571,-0.084892,0.283216,0.749421,1016.547974
883677,0.060545,-0.011355,-0.159822,1.119925816,0.200547347,-0.05462102,-0.102328,0.282496,0.749365,1016.547974
883777,0.054591,-0.043057,-0.144259,1.099892551,0.181127041,-0.049950204,-0.115389,0.283409,0.755409,1016.547974
883877,0.03466,-0.071841,-0.132085,1.070225102,0.157588571,-0.043248571,-0.126309,0.284676,0.753458,1016.547974
883977,0.006687,-0.101321,-0.115588,1.037168776,0.127884286,-0.026842755,-0.140319,0.286223,0.757028,1016.547974
884077,-0.020444,-0.143185,-0.091387,1.002179082,0.109026122,-0.013520204,-0.148176,0.287137,0.751054,1016.547974
884177,-0.037794,-0.189056,-0.071027,0.971310918,0.114306122,0.005322959,-0.153032,0.294978,0.745435,1016.547974
884277,-0.045536,-0.220222,-0.058298,0.956154592,0.136958469,0.024997551,-0.155344,0.296472,0.735989,1016.547974
884377,-0.043654,-0.214425,-0.04848,0.95650602,0.158374592,0.027088265,-0.151775,0.306051,0.732974,1016.547974
884477,-0.040392,-0.186115,-0.043232,0.952220918,0.177885816,0.012829082,-0.144016,0.316596,0.71899,1016.547974
884577,-0.035109,-0.152835,-0.046567,0.942427653,0.200780102,-0.015210918,-0.132456,0.327592,0.715055,1016.547974
884677,-0.030746,-0.125789,-0.057436,0.938370918,0.215918163,-0.033745918,-0.12322,0.338064,0.702071,1016.547974
884777,-0.031327,-0.126598,-0.068926,0.939616939,0.223032143,-0.042117143,-0.111608,0.352668,0.695814,1016.547974
884877,-0.041517,-0.144442,-0.080659,0.938629694,0.220999184,-0.044606327,-0.099918,0.363503,0.684855,1016.547974
884977,-0.04663,-0.166396,-0.085135,0.932459388,0.216417857,-0.046222041,-0.089148,0.376041,0.669974,1016.547974
885077,-0.040956,-0.187765,-0.088182,0.93100949,0.210937551,-0.044008469,-0.082483,0.383371,0.660836,1016.547974
885177,-0.018472,-0.199893,-0.091318,0.94041551,0.207970816,-0.038168878,-0.078196,0.391528,0.645724,1016.547974
885277,0.006538,-0.195638,-0.0928,0.950792347,0.212601837,-0.028310204,-0.074048,0.394864,0.637381,1016.547974
885377,0.027727,-0.174588,-0.091116,0.96089551,0.224003469,-0.016343367,-0.070367,0.399276,0.627589,1016.547974
885477,0.034335,-0.145419,-0.087005,0.95992602,0.235953163,0.002301939,-0.070304,0.398448,0.62404,1016.547974
885577,0.037871,-0.107785,-0.086112,0.956360918,0.242259898,0.011563367,-0.06882,0.397902,0.624515,1016.547974
885677,0.035495,-0.073074,-0.080288,0.953917755,0.242771429,0.013722551,-0.068841,0.396359,0.625438,1016.545593
885777,0.034078,-0.049852,-0.072986,0.948351429,0.240619592,0.006021837,-0.070514,0.394929,0.634883,1016.545593
885877,0.025912,-0.03727,-0.061408,0.94878102,0.22977,0.001625408,-0.066161,0.389562,0.641128,1016.545593
885977,0.008937,-0.025775,-0.045165,0.948683878,0.217579388,0.007623265,-0.064984,0.388222,0.658096,1016.545593
886077,-0.00559,-0.00893,-0.027509,0.957629388,0.208170408,0.01249398,-0.06218,0.383731,0.66739,1016.545593
886177,-0.014949,0.001529,-0.010092,0.970588061,0.204283367,0.004438878,-0.060011,0.379883,0.684232,1016.545593
886277,-0.019168,-0.007896,0.009174,0.97722,0.203663061,-0.005634694,-0.063717,0.376395,0.695574,1016.545593
886377,-0.024587,-0.021183,0.03316,0.981467653,0.204595612,3.86E-05,-0.062612,0.371398,0.715863,1016.545593
886477,-0.032244,-0.03196,0.054665,0.977964898,0.213492143,0.013939388,-0.062306,0.367421,0.725682,1016.545593
886577,-0.042417,-0.036548,0.069123,0.968691224,0.223563776,0.026822143,-0.061039,0.364328,0.73755,1016.545593
886677,-0.051235,-0.039355,0.070863,0.945867857,0.229573469,0.030586837,-0.056302,0.362626,0.750496,1016.545593
886777,-0.062881,-0.045367,0.067489,0.933726735,0.223923163,0.022819286,-0.054481,0.360168,0.759391,1016.545593
886877,-0.074825,-0.054068,0.066743,0.931825204,0.20341102,0.012809592,-0.045192,0.360059,0.768916,1016.545593
886977,-0.08741,-0.062296,0.077355,0.931483061,0.182557653,0.003109388,-0.039366,0.36354,0.777618,1016.545593
887077,-0.09642,-0.070817,0.091817,0.93828551,0.164364388,0.006563367,-0.033978,0.364707,0.782694,1016.545593
887177,-0.096427,-0.069489,0.110833,0.953599388,0.155051122,0.017738776,-0.026669,0.366647,0.79182,1016.545593
887277,-0.081802,-0.04773,0.126183,0.971435918,0.154857857,0.025336429,-0.024703,0.367539,0.79337,1016.543884
887377,-0.068631,-0.027808,0.135116,0.978024286,0.168783673,0.02842949,-0.021287,0.368786,0.797446,1016.543884
887477,-0.055882,-0.014238,0.13533,0.973962959,0.191467653,0.029843776,-0.018251,0.364399,0.794219,1016.543884
887577,-0.054779,0.008588,0.129678,0.970113776,0.206758571,0.038199184,-0.015341,0.367124,0.798871,1016.543884
887677,-0.062248,0.005597,0.127209,0.955723265,0.208467857,0.036440816,-0.017864,0.364102,0.800217,1016.543884
887777,-0.058814,-0.013966,0.124815,0.954927857,0.200413571,0.034893367,-0.014424,0.358968,0.801964,1016.543884
887877,-0.045968,-0.020431,0.129301,0.963163878,0.189149796,0.035228061,-0.01346,0.356389,0.803336,1016.543884
887977,-0.031511,-0.020399,0.132452,0.962930204,0.182739694,0.034703265,-0.011009,0.354758,0.80526,1016.543884
888077,-0.020744,-0.009718,0.142042,0.96396949,0.177136939,0.045530816,-0.013481,0.349888,0.803506,1016.543884
888177,-0.011192,0.019122,0.15012,0.974210102,0.167670408,0.071527143,-0.007992,0.349825,0.803008,1016.543884
888277,0.000374,0.051064,0.158306,0.983289796,0.159016531,0.087911531,-0.00347,0.350847,0.801061,1016.543884
888377,0.014328,0.076015,0.167435,0.998081735,0.14604051,0.100277755,0.004455,0.34614,0.802834,1016.543884
888477,0.026222,0.09507,0.178125,1.00800898,0.142016633,0.107247041,0.006408,0.349973,0.805537,1016.543884
888577,0.03325,0.117643,0.182644,1.013379796,0.144118367,0.121905204,0.015292,0.356067,0.810868,1016.543884
888677,0.026768,0.156408,0.187473,1.010085918,0.153610102,0.133969184,0.024655,0.361109,0.817148,1016.543884
888777,0.009843,0.205385,0.189564,1.005918061,0.170869694,0.135568673,0.034513,0.370104,0.824131,1016.543884
888877,-0.021307,0.272918,0.194299,1.020792449,0.180930612,0.133631837,0.050149,0.381962,0.84229,1016.545593
888977,-0.047486,0.3509,0.1999,1.054666224,0.178549592,0.117752857,0.065821,0.392422,0.858373,1016.545593
889077,-0.047107,0.389735,0.209961,1.075510306,0.182827143,0.074525816,0.081901,0.404625,0.879556,1016.545593
889177,-0.021461,0.316524,0.220344,1.044370612,0.197090204,0.025173878,0.09891,0.420607,0.90494,1016.545593
889277,-0.011201,0.167436,0.217793,0.99609602,0.193269082,0.001936429,0.110451,0.432738,0.929121,1016.545593
889377,-0.028524,0.066046,0.19772,1.003621224,0.164210714,0.012858469,0.122612,0.45063,0.947583,1016.545593
889477,-0.047706,0.052031,0.179529,1.05404949,0.157115816,0.012484592,0.134151,0.456806,0.970959,1016.545593
889577,-0.057291,0.045445,0.179255,1.076987245,0.184780204,-0.026121633,0.146258,0.465135,0.990938,1016.545593
889677,-0.056514,0.008886,0.184963,1.076639694,0.222332347,-0.063282347,0.150939,0.473704,1.008415,1016.545593
889777,-0.059211,-0.043612,0.185119,1.068394082,0.246770714,-0.069826531,0.156605,0.470323,1.024784,1016.545593
889877,-0.084308,-0.083864,0.171079,1.064303265,0.238727347,-0.069991531,0.159792,0.478915,1.042261,1016.545593
889977,-0.132979,-0.136461,0.151401,1.061316735,0.212478571,-0.097497245,0.162946,0.473533,1.059527,1016.545593
890077,-0.214711,-0.208601,0.138968,1.07828,0.183148367,-0.126031633,0.157802,0.465753,1.067141,1016.545593
890177,-0.277286,-0.252642,0.134671,1.110152959,0.163246122,-0.118794388,0.157043,0.45963,1.080356,1016.545593
890277,-0.296005,-0.259137,0.137465,1.136407959,0.166304184,-0.09084551,0.149357,0.448781,1.090316,1016.545593
890377,-0.268892,-0.244412,0.139452,1.147135918,0.171549694,-0.062502551,0.138196,0.439504,1.099852,1016.545593
890477,-0.209811,-0.227096,0.128022,1.137751122,0.175228469,-0.040306735,0.130525,0.42671,1.108711,1016.545593
890577,-0.130108,-0.20568,0.103956,1.108440204,0.168142041,-0.01547102,0.12035,0.416896,1.118721,1016.545593
890677,-0.036043,-0.164948,0.076121,1.076191837,0.138595408,0.001145204,0.111694,0.410096,1.127884,1016.545593
890777,0.07161,-0.101766,0.05261,1.042006735,0.109478367,0.005303469,0.108578,0.406342,1.134203,1016.545593
890877,0.177747,-0.035331,0.039453,0.993228673,0.088764286,-0.010106837,0.105943,0.403529,1.141572,1016.545593
890977,0.262647,0.018406,0.039017,0.945492755,0.081171837,-0.046181735,0.104697,0.403891,1.155117,1016.545593
891077,0.316375,0.033162,0.047768,0.911185714,0.085366633,-0.091979286,0.106623,0.407653,1.15932,1016.545593
891177,0.341951,0.014684,0.065145,0.893575204,0.093212551,-0.123292857,0.111105,0.41254,1.160075,1016.545593
891277,0.342026,-0.006848,0.082731,0.885587449,0.104419184,-0.131785612,0.113668,0.411697,1.156026,1016.545593
891377,0.319393,-0.010026,0.096555,0.890214184,0.112996837,-0.135645714,0.115738,0.418809,1.152884,1016.545593
891477,0.283447,-0.001087,0.108268,0.903542857,0.111558265,-0.139304592,0.116987,0.419941,1.139415,1016.545593
891577,0.241656,0.023646,0.113971,0.919105714,0.112264694,-0.138413061,0.117792,0.42023,1.122896,1016.545593
891677,0.203973,0.050645,0.109956,0.93354898,0.114013571,-0.13461602,0.116717,0.421836,1.10043,1016.545593
891777,0.174214,0.074403,0.095214,0.932787449,0.120704898,-0.136635102,0.115548,0.422204,1.082911,1016.545593
891877,0.150247,0.087929,0.070386,0.936115102,0.131003571,-0.136357551,0.113565,0.421077,1.055294,1016.545593
891977,0.132717,0.097819,0.040045,0.94177,0.136682245,-0.129502041,0.109017,0.419797,1.031674,1016.547302
892077,0.115122,0.107377,0.006813,0.960319898,0.134687653,-0.116227755,0.102397,0.415366,1.0119,1016.547302
892177,0.098947,0.122342,-0.019946,0.983059286,0.124316735,-0.101221735,0.097227,0.417743,0.995481,1016.547302
892277,0.087172,0.141013,-0.036504,1.004341224,0.113744286,-0.085745612,0.089006,0.41058,0.981078,1016.547302
892377,0.088841,0.174852,-0.048693,1.025076531,0.110001122,-0.080278265,0.076236,0.408776,0.970951,1016.547302
892477,0.096645,0.208661,-0.060656,1.033297245,0.104942347,-0.074262449,0.063891,0.401813,0.964068,1016.547302
892577,0.102457,0.229695,-0.07331,1.039618265,0.097901429,-0.066022653,0.048519,0.399261,0.959913,1016.547302
892677,0.093043,0.24584,-0.083436,1.046618878,0.091604592,-0.049633469,0.038075,0.393521,0.958105,1016.547302
892777,0.076235,0.246702,-0.079244,1.046935102,0.096534796,-0.04008051,0.02472,0.389017,0.952349,1016.547302
892877,0.062082,0.206699,-0.068322,1.038853571,0.103709592,-0.025854184,0.016267,0.387207,0.951245,1016.547302
892977,0.066763,0.164779,-0.056539,1.025699898,0.105829592,-0.014321224,0.010329,0.378478,0.947787,1016.547302
893077,0.082168,0.125772,-0.053283,1.006647245,0.093783571,-0.011551429,0.002921,0.377768,0.944236,1016.547302
893177,0.110286,0.093641,-0.054856,0.983268776,0.080722143,-0.008275408,0.000926,0.371347,0.943405,1016.547302
893277,0.144705,0.081553,-0.057806,0.965921429,0.066562551,0.001840204,-0.00455,0.367472,0.9427,1016.547302
893377,0.183567,0.089564,-0.056969,0.949506327,0.063081633,0.002257755,-0.000998,0.367585,0.939203,1016.547302
893477,0.21318,0.090701,-0.055635,0.938229286,0.063079592,0.002074184,2.40E-05,0.366646,0.937653,1016.547302
893577,0.230012,0.097373,-0.055703,0.94475102,0.069770408,0.005870816,0.004559,0.369684,0.935308,1016.547302
893677,0.228674,0.113806,-0.047888,0.952818265,0.084434184,0.012432449,0.008567,0.37216,0.934436,1016.549011
893777,0.214629,0.122345,-0.039699,0.948822959,0.101189388,0.009724694,0.014667,0.378831,0.928771,1016.549011
893877,0.192132,0.118224,-0.037044,0.942305612,0.116739184,0.009007959,0.01969,0.380841,0.926874,1016.549011
893977,0.162052,0.103627,-0.035089,0.93084551,0.122402653,0.008504694,0.022295,0.388042,0.921733,1016.549011
894077,0.132714,0.08172,-0.039522,0.923365,0.124734694,0.006376122,0.025966,0.392928,0.912467,1016.549011
894177,0.10937,0.060207,-0.041842,0.922420408,0.120835816,0.004540918,0.027645,0.397348,0.903174,1016.549011
894277,0.087017,0.044494,-0.043241,0.925411122,0.107075816,0.009405408,0.026298,0.402217,0.895905,1016.549011
894377,0.068408,0.022703,-0.044508,0.926043673,0.093482959,0.012182041,0.028425,0.404516,0.88901,1016.549011
894477,0.059823,-0.002096,-0.047081,0.925658367,0.091185102,0.014868469,0.023637,0.404104,0.878462,1016.549011
894577,0.064044,-0.026473,-0.052404,0.927778776,0.094022143,0.017833163,0.022255,0.404915,0.872489,1016.549011
894677,0.07596,-0.051662,-0.059549,0.931360714,0.098831735,0.018807653,0.019368,0.404729,0.866965,1016.549011
894777,0.085579,-0.082622,-0.071385,0.935192449,0.096442959,0.014615408,0.012492,0.402115,0.861312,1016.549011
894877,0.091274,-0.114017,-0.079325,0.942217347,0.090453367,0.019557143,0.006134,0.401037,0.854737,1016.549011
894977,0.09437,-0.140749,-0.076628,0.953622041,0.085639796,0.040043571,-0.001736,0.399933,0.84916,1016.549011
895077,0.079519,-0.137269,-0.06984,0.966550714,0.076152245,0.059414694,-0.009554,0.396483,0.840458,1016.549011
895177,0.06228,-0.125472,-0.064835,0.976543163,0.072597959,0.069223265,-0.018789,0.395242,0.827858,1016.549011
895277,0.043489,-0.114631,-0.053326,0.985117755,0.077482347,0.06137398,-0.025641,0.390708,0.820605,1016.550781
895377,0.033099,-0.103782,-0.041613,0.978495918,0.089739388,0.054164082,-0.029919,0.391807,0.809633,1016.550781
895477,0.032216,-0.10341,-0.034744,0.963707959,0.098729082,0.04455,-0.037119,0.388164,0.794408,1016.550781
895577,0.020266,-0.115481,-0.040506,0.955834898,0.097349388,0.038279184,-0.041803,0.388515,0.778388,1016.550781
895677,-0.000865,-0.137063,-0.047958,0.952559286,0.092091735,0.041276429,-0.044066,0.386168,0.765739,1016.550781
895777,-0.01606,-0.158743,-0.056357,0.956798878,0.088753673,0.04809551,-0.043815,0.386818,0.752244,1016.550781
895877,-0.022851,-0.17354,-0.065123,0.954406939,0.087487959,0.053628878,-0.045038,0.388038,0.737775,1016.550781
895977,-0.01738,-0.191804,-0.070594,0.95418,0.085805,0.055261224,-0.041849,0.391486,0.727432,1016.550781
896077,-0.015128,-0.211141,-0.074254,0.955235816,0.08350898,0.066272041,-0.044189,0.392907,0.719486,1016.550781
896177,-0.017965,-0.217488,-0.082918,0.957645816,0.083505408,0.079606327,-0.039412,0.396572,0.704146,1016.550781
896277,-0.020238,-0.199518,-0.091395,0.969597347,0.086538163,0.091425612,-0.040162,0.399705,0.691277,1016.550781
896377,-0.016358,-0.17606,-0.105235,0.973935204,0.092379286,0.085705816,-0.035969,0.401666,0.680359,1016.550781
896477,-0.008769,-0.159038,-0.11309,0.982911633,0.093648163,0.07580051,-0.032257,0.403186,0.668416,1016.550781
896577,-0.002863,-0.146535,-0.118072,0.983526429,0.09653949,0.069394694,-0.030116,0.408498,0.661173,1016.550781
896677,-0.005335,-0.141082,-0.123176,0.974410816,0.098376122,0.065503163,-0.030451,0.411904,0.652829,1016.550781
896777,-0.023806,-0.130424,-0.12422,0.959949796,0.093839592,0.06238051,-0.03039,0.41454,0.649957,1016.550781
896877,-0.040458,-0.115784,-0.128324,0.954562143,0.092035918,0.055741224,-0.026866,0.414581,0.647959,1016.550781
896977,-0.051251,-0.107186,-0.136293,0.955678469,0.091416327,0.047498367,-0.025868,0.415561,0.64801,1016.550781
897077,-0.053177,-0.083693,-0.146348,0.966289694,0.094737857,0.049580306,-0.023835,0.422577,0.646867,1016.550781
897177,-0.052264,-0.042102,-0.154693,0.984985408,0.105320714,0.057508776,-0.022798,0.425149,0.644995,1016.550781
897277,-0.068047,0.019232,-0.167236,1.011470408,0.120506531,0.080247347,-0.023325,0.429545,0.647223,1016.550781
897377,-0.099925,0.083753,-0.177777,1.056030306,0.139359184,0.097461633,-0.019462,0.433628,0.654449,1016.550781
897477,-0.133409,0.139389,-0.187314,1.107863265,0.172252041,0.107333878,-0.019023,0.436939,0.658126,1016.550781
897577,-0.147852,0.192881,-0.197226,1.154911327,0.203825714,0.114600612,-0.014655,0.445499,0.665582,1016.550781
897677,-0.15101,0.235318,-0.205934,1.183347755,0.234201633,0.112318571,-0.012984,0.447116,0.683203,1016.550781
897777,-0.173522,0.238661,-0.220826,1.183125816,0.243614388,0.111449796,-0.007298,0.449738,0.699377,1016.550781
897877,-0.208052,0.220114,-0.244706,1.173080306,0.222121224,0.110316429,-0.004267,0.453959,0.724647,1016.550781
897977,-0.23208,0.191868,-0.264343,1.151758571,0.187556939,0.10542551,0.001287,0.455248,0.747767,1016.550781
898077,-0.215813,0.171677,-0.277097,1.146233878,0.153620714,0.097331837,0.011256,0.460258,0.77509,1016.550781
898177,-0.180959,0.176781,-0.277993,1.159793061,0.129429796,0.054333776,0.018705,0.464738,0.803886,1016.550781
898277,-0.152383,0.166106,-0.25973,1.171318265,0.117547755,-0.007291531,0.022273,0.469545,0.827183,1016.550781
898377,-0.128201,0.119239,-0.218308,1.170437755,0.109393265,-0.053692959,0.030677,0.47638,0.858606,1016.550781
898477,-0.083232,0.068241,-0.182396,1.166581429,0.110469898,-0.066407755,0.028319,0.479434,0.878801,1016.548523
898577,-0.038301,0.021847,-0.170696,1.164658163,0.131742959,-0.054025204,0.02947,0.484474,0.898098,1016.548523
898677,-0.004667,-0.01979,-0.163515,1.179463367,0.148430408,-0.045712653,0.025727,0.491802,0.912998,1016.548523
898777,0.011369,-0.030331,-0.162648,1.183610306,0.169018571,-0.043067347,0.020986,0.492694,0.927068,1016.548523
898877,0.036278,-0.020366,-0.165783,1.165923367,0.192473878,-0.033534592,0.017961,0.503558,0.930624,1016.548523
898977,0.059453,0.002601,-0.163992,1.143925816,0.212240714,-0.026724184,0.01044,0.50702,0.933799,1016.548523
899077,0.069418,0.019903,-0.15248,1.111138878,0.218177041,-0.011328163,0.011924,0.516888,0.935807,1016.548523
899177,0.04147,0.039041,-0.132026,1.077469286,0.214213673,0.004551837,0.008979,0.525976,0.934764,1016.548523
899277,-0.018976,0.062777,-0.101642,1.036972551,0.210188878,0.012716429,0.013004,0.537918,0.934375,1016.548523
899377,-0.104352,0.082886,-0.0613,0.983932041,0.205671837,0.013223571,0.018009,0.551291,0.935062,1016.548523
899477,-0.183048,0.110238,-0.020706,0.912907755,0.19303898,0.005113673,0.024105,0.565886,0.930803,1016.548523
899577,-0.234805,0.128388,0.021275,0.853787551,0.171490612,-0.024645816,0.035644,0.580796,0.92857,1016.548523
899677,-0.257705,0.127279,0.058237,0.811327959,0.151506429,-0.068581224,0.049237,0.598807,0.923491,1016.548523
899777,-0.25714,0.112359,0.086295,0.777147755,0.14589449,-0.103770204,0.067044,0.615365,0.905816,1016.548523
899877,-0.238787,0.10347,0.107695,0.74832551,0.151837857,-0.12964449,0.085919,0.630605,0.884068,1016.548523
899977,-0.211467,0.123279,0.114397,0.744747449,0.170230714,-0.141672959,0.101415,0.644197,0.856218,1016.548523
900077,-0.168828,0.151422,0.111343,0.765872551,0.204222245,-0.154025714,0.11263,0.656396,0.817271,1016.548523
900177,-0.125818,0.189806,0.107503,0.816764592,0.245786531,-0.161615204,0.118361,0.666689,0.778219,1016.548523
900277,-0.08611,0.229005,0.10203,0.868684082,0.285386224,-0.153421633,0.123579,0.667524,0.738685,1016.548523
900377,-0.049636,0.258695,0.10417,0.91188,0.308999286,-0.127202959,0.11992,0.667746,0.6941,1016.548523
900477,-0.0068,0.282854,0.102669,0.958881224,0.305994286,-0.103806122,0.114599,0.661603,0.657706,1016.548523
900577,0.034491,0.300208,0.102103,0.999209388,0.288473367,-0.094201122,0.103667,0.65967,0.629035,1016.548523
900677,0.061094,0.309894,0.103503,1.023528061,0.267005,-0.099395816,0.093656,0.651574,0.603559,1016.548523
900777,0.074355,0.306929,0.109785,1.032604796,0.249552551,-0.09739449,0.083565,0.651707,0.583513,1016.548523
900877,0.074266,0.306396,0.113259,1.049525306,0.23481898,-0.079619286,0.075005,0.645459,0.560638,1016.548523
900977,0.073579,0.3113,0.122951,1.066859592,0.221182551,-0.059682041,0.067474,0.647216,0.53717,1016.548523
901077,0.069051,0.30115,0.129519,1.064792551,0.222705816,-0.048007245,0.059422,0.646939,0.5146,1016.548523
901177,0.050179,0.256093,0.132781,1.050222347,0.230350408,-0.043416224,0.051432,0.650295,0.489209,1016.548523
901277,0.022328,0.191913,0.127343,1.023489082,0.234284592,-0.030082449,0.045058,0.648483,0.456542,1016.548523
901377,-0.008941,0.121735,0.112198,0.989870714,0.231134286,-0.016896939,0.042719,0.654178,0.422257,1016.548523
901477,-0.038171,0.052388,0.09237,0.951935,0.220129898,-0.006418367,0.036994,0.654238,0.38167,1016.548523
901577,-0.062404,-0.005091,0.070482,0.924401735,0.208309796,0.004441327,0.033758,0.663678,0.342565,1016.548523
901677,-0.076429,-0.035793,0.054973,0.905324388,0.19540949,0.017535612,0.030624,0.662967,0.296429,1016.548523
901777,-0.078018,-0.04486,0.045463,0.884736224,0.175437245,0.023478367,0.024906,0.666515,0.25602,1016.548523
901877,-0.064006,-0.044957,0.039084,0.866180816,0.157915714,0.022452755,0.020674,0.67151,0.216186,1016.548523
901977,-0.043911,-0.05651,0.034664,0.864138571,0.157316429,0.019941633,0.015316,0.670728,0.18257,1016.548523
902077,-0.031582,-0.090962,0.027418,0.871225306,0.16870449,0.019740306,0.010485,0.670508,0.14748,1016.548523
902177,-0.040936,-0.136752,0.016476,0.889130204,0.190788673,0.020852347,0.005562,0.670545,0.117414,1016.548523
902277,-0.06824,-0.166194,-0.000952,0.918279592,0.209536122,0.029382653,-0.00433,0.667222,0.086169,1016.548523
902377,-0.085932,-0.178887,-0.024323,0.937242449,0.218949286,0.029407143,-0.008348,0.667999,0.061152,1016.548523
902477,-0.094544,-0.183653,-0.04744,0.943909388,0.227728367,0.017052857,-0.018897,0.664274,0.038404,1016.548523
902577,-0.09212,-0.184818,-0.074345,0.944235612,0.232632959,0.002912245,-0.025971,0.658477,0.016054,1016.548523
902677,-0.088513,-0.183441,-0.098384,0.947827653,0.23289,-0.00105602,-0.036686,0.654817,0.002327,1016.548523
902777,-0.077801,-0.161241,-0.116998,0.962931531,0.228292653,0.015049082,-0.042108,0.650589,-0.001402,1016.548523
902877,-0.057508,-0.113598,-0.132581,0.979072755,0.226135714,0.032060204,-0.049037,0.644865,-0.004708,1016.548523
902977,-0.045129,-0.069165,-0.13863,0.987194592,0.229077041,0.046379388,-0.052584,0.636828,-0.002616,1016.548523
903077,-0.042251,-0.029863,-0.136054,0.992654796,0.228142245,0.061435612,-0.049768,0.633358,0.006229,1016.548523
903177,-0.058768,-0.002787,-0.126247,0.989491327,0.217413878,0.060708061,-0.046549,0.634099,0.020801,1016.548523
903277,-0.071632,-0.006713,-0.121989,0.979241327,0.200710816,0.061263776,-0.039885,0.632197,0.037246,1016.548523
903377,-0.068931,-0.007742,-0.116707,0.984602143,0.180672653,0.05587051,-0.032237,0.633221,0.054843,1016.548523
903477,-0.055426,0.010026,-0.107273,0.986598571,0.176491429,0.045395408,-0.022147,0.633088,0.074889,1016.548523
903577,-0.029258,0.029209,-0.097295,0.968195306,0.186837857,0.041136531,-0.012922,0.633806,0.087963,1016.548523
903677,-0.003012,0.038805,-0.089918,0.952173878,0.193813469,0.043710612,-0.00756,0.640856,0.095343,1016.548523
903777,0.00682,0.036233,-0.080839,0.939340918,0.197521735,0.044849898,0.001744,0.639299,0.103792,1016.548523
903877,0.011247,0.021155,-0.068134,0.933219694,0.190343878,0.048251633,0.01154,0.644662,0.113596,1016.548523
903977,0.013601,0.012738,-0.054478,0.934198878,0.179443673,0.053757755,0.01841,0.648747,0.119825,1016.548523
904077,0.027346,0.020509,-0.040564,0.939609592,0.168766735,0.050690408,0.030174,0.650542,0.130451,1016.548523
904177,0.042872,0.024776,-0.025599,0.939196327,0.171035408,0.045922959,0.04145,0.653367,0.140629,1016.548523
904277,0.040462,0.025085,-0.015121,0.934038367,0.184297245,0.043382653,0.048211,0.6532,0.152152,1016.548523
904377,0.023212,0.028518,-0.008499,0.933904898,0.20658102,0.054706429,0.055467,0.656988,0.164378,1016.548523
904477,-0.003739,0.040415,-0.003716,0.940277143,0.227986939,0.069971224,0.070838,0.658543,0.168483,1016.548523
904577,-0.013146,0.053174,0.001197,0.93492449,0.235536531,0.07826102,0.075202,0.664612,0.175812,1016.548523
904677,-0.002406,0.061484,0.009136,0.935140102,0.231292245,0.080881224,0.086638,0.668344,0.177518,1016.548523
904777,0.008988,0.057392,0.014124,0.935773469,0.21435449,0.084587959,0.09307,0.669615,0.180095,1016.548523
904877,0.018684,0.047121,0.01753,0.952992755,0.196883265,0.093150408,0.097188,0.67684,0.173955,1016.548523
904977,0.013001,0.050822,0.034015,0.968295714,0.186971633,0.096680306,0.098161,0.673787,0.174802,1016.548523
905077,0.004264,0.059588,0.052195,0.969465714,0.193057857,0.094443061,0.104647,0.674705,0.174355,1016.548523
905177,0.000737,0.066506,0.06401,0.97530949,0.19653551,0.087499592,0.106573,0.674006,0.177829,1016.548523
905277,0.011252,0.065408,0.07041,0.970272857,0.197025714,0.084484388,0.110426,0.67261,0.184777,1016.548523
905377,0.036327,0.059748,0.077662,0.967817449,0.190779184,0.086121633,0.113677,0.669959,0.197171,1016.548523
905477,0.070513,0.04892,0.084866,0.95967949,0.17179898,0.091020102,0.115397,0.673191,0.212369,1016.548523
905577,0.094361,0.028293,0.094705,0.945263878,0.152660408,0.10454,0.120166,0.668596,0.223163,1016.548523
905677,0.11537,0.008361,0.101724,0.938002347,0.14592,0.125766327,0.121016,0.66969,0.231236,1016.548523
905777,0.125366,0.011665,0.111357,0.936315918,0.145634388,0.14304898,0.127964,0.670503,0.232789,1016.548523
905877,0.132175,0.019241,0.120526,0.928542653,0.160423878,0.15155949,0.132967,0.672465,0.231893,1016.548523
905977,0.125833,0.021162,0.125845,0.917928265,0.178744388,0.153859286,0.137507,0.678493,0.2297,1016.548523
906077,0.108567,0.017755,0.130446,0.915191735,0.187662245,0.160716531,0.147603,0.685623,0.223561,1016.548523
906177,0.09716,0.003876,0.134105,0.916083265,0.189456837,0.162088469,0.156744,0.695357,0.21555,1016.548523
906277,0.102867,-0.017864,0.134506,0.917095408,0.186059388,0.15683602,0.167326,0.700961,0.209835,1016.548523
906377,0.123447,-0.048546,0.127204,0.919998367,0.188681531,0.156417857,0.18189,0.714922,0.205553,1016.548523
906477,0.144169,-0.07698,0.116414,0.92027051,0.19509949,0.153851837,0.198453,0.722922,0.199967,1016.548523
906577,0.156988,-0.09723,0.103383,0.923912755,0.200661429,0.153797245,0.214027,0.739882,0.195337,1016.548523
906677,0.151058,-0.09057,0.094928,0.934002551,0.202606837,0.160959184,0.23151,0.746179,0.193674,1016.548523
906777,0.141361,-0.066493,0.09781,0.944647449,0.202551633,0.168609388,0.250002,0.764891,0.193145,1016.548523
906877,0.144737,-0.037293,0.102401,0.960277653,0.197509388,0.174400306,0.269456,0.774572,0.19316,1016.548523
906977,0.150686,-0.029584,0.108396,0.981411837,0.194101224,0.18008,0.288432,0.785305,0.192225,1016.548523
907077,0.157886,-0.033163,0.113198,1.006877041,0.189014388,0.197949388,0.305385,0.795001,0.192738,1016.548523
907177,0.159027,0.003921,0.119387,1.048983673,0.184755918,0.22180102,0.324313,0.810073,0.195031,1016.548523
907277,0.172487,0.094359,0.112945,1.096957755,0.195610306,0.211535102,0.348288,0.825235,0.193827,1016.548523
907377,0.200265,0.166,0.09785,1.111434286,0.243205,0.162465816,0.37452,0.85017,0.206651,1016.548523
907477,0.197966,0.145031,0.079895,1.091093061,0.296054286,0.099511531,0.401353,0.864948,0.212445,1016.548523
907577,0.130073,0.073821,0.066174,1.075153163,0.321483061,0.07004551,0.432518,0.888687,0.22772,1016.548523
907677,0.005428,0.01461,0.062857,1.089674694,0.309654898,0.056049694,0.460954,0.908874,0.255336,1016.548523
907777,-0.124076,-0.034637,0.057123,1.115478265,0.280267143,0.024646837,0.484297,0.917938,0.28739,1016.548523
907877,-0.2069,-0.102518,0.046801,1.148315408,0.273733163,-0.001300306,0.50602,0.929679,0.326593,1016.548523
907977,-0.212817,-0.13777,0.036084,1.20472,0.280733163,-0.002399388,0.518536,0.931517,0.377306,1016.548523
908077,-0.165464,-0.13256,0.027689,1.265398367,0.275062245,-0.000602551,0.524949,0.924691,0.433583,1016.548523
908177,-0.118104,-0.138475,0.030131,1.283663571,0.263964694,-0.018035204,0.52319,0.918957,0.50093,1016.548523
908277,-0.109364,-0.193258,0.022241,1.263567755,0.258716531,-0.033220918,0.509955,0.908398,0.568518,1016.548523
908377,-0.140266,-0.277043,0.010656,1.23101051,0.246288571,-0.04734602,0.498222,0.896843,0.635557,1016.548523
908477,-0.191773,-0.361039,0.014743,1.183850306,0.218803571,-0.047695204,0.478071,0.876623,0.698637,1016.548523
908577,-0.2332,-0.41005,0.025346,1.135726224,0.177283163,-0.037340204,0.454889,0.853364,0.763562,1016.548523
908677,-0.234612,-0.429919,0.034089,1.102197143,0.140252041,-0.040205102,0.43083,0.834894,0.822719,1016.548523
908777,-0.191349,-0.429486,0.05174,1.065792347,0.118259592,-0.050331224,0.406903,0.8128,0.874176,1016.548523
908877,-0.103499,-0.403754,0.06771,1.014843776,0.111273878,-0.046906837,0.386147,0.793607,0.916263,1016.548523
908977,0.01484,-0.358227,0.064749,0.952707959,0.121793163,-0.046602041,0.364017,0.774751,0.951853,1016.548523
909077,0.140267,-0.32263,0.045562,0.880892857,0.130668776,-0.057159898,0.353012,0.760614,0.979178,1016.548523
909177,0.241144,-0.298259,0.029386,0.816525,0.120378061,-0.078625918,0.34588,0.749901,0.98614,1016.548523
909277,0.307987,-0.234856,0.027615,0.782349694,0.105094286,-0.099773367,0.34393,0.74806,0.983539,1016.548523
909377,0.361266,-0.145745,0.030754,0.778237857,0.091808673,-0.131628265,0.349075,0.740467,0.973637,1016.548523
909477,0.387348,-0.052056,0.035315,0.799987449,0.091633776,-0.176929184,0.351941,0.732969,0.952214,1016.548523
909577,0.381802,0.012721,0.036022,0.84029102,0.088531735,-0.224753469,0.354382,0.724177,0.926717,1016.548523
909677,0.346928,0.03026,0.037348,0.900891837,0.092182143,-0.250571837,0.35006,0.714554,0.889645,1016.548523
909777,0.280871,0.007593,0.053454,0.974460102,0.11318398,-0.247132041,0.342126,0.702183,0.858943,1016.548523
909877,0.191166,-0.024313,0.065302,1.039456837,0.146482959,-0.22579551,0.331596,0.688591,0.833687,1016.548523
909977,0.088913,-0.044283,0.067726,1.085673061,0.179434694,-0.201148367,0.312487,0.668888,0.813622,1016.548523
910077,0.002988,-0.044547,0.049853,1.104205306,0.210516327,-0.181230714,0.294112,0.653454,0.808305,1016.548523
910177,-0.042988,-0.037533,0.019688,1.087113878,0.232491633,-0.164483469,0.272652,0.635834,0.807884,1016.548523
910277,-0.045227,-0.037219,-0.01514,1.053657041,0.230181327,-0.157207143,0.250581,0.617434,0.813434,1016.548523
910377,-0.017792,-0.049213,-0.044461,1.027135306,0.205696122,-0.152822347,0.225855,0.595177,0.827303,1016.548523
910477,0.021724,-0.079085,-0.060131,1.008992857,0.172310714,-0.135663673,0.203655,0.57198,0.839123,1016.548523
910577,0.05131,-0.108853,-0.065817,0.990020306,0.146164694,-0.098790204,0.179793,0.548373,0.859938,1016.548523
910677,0.07226,-0.123424,-0.06922,0.969315714,0.13365551,-0.072314286,0.159032,0.525506,0.874782,1016.548523
910777,0.087096,-0.126075,-0.072519,0.948405816,0.131129694,-0.062367653,0.144669,0.505309,0.894279,1016.548523
910877,0.096698,-0.113724,-0.067052,0.931028571,0.127224898,-0.058514388,0.132839,0.483698,0.911201,1016.548523
910977,0.107022,-0.105744,-0.056883,0.915182041,0.118204286,-0.074661224,0.121021,0.463108,0.927675,1016.548523
911077,0.108456,-0.106899,-0.03966,0.91320449,0.103101429,-0.085279898,0.117597,0.447647,0.948929,1016.548523
911177,0.094333,-0.11315,-0.0135,0.914487551,0.091076429,-0.090149184,0.110686,0.432241,0.970181,1016.548523
911277,0.072966,-0.123252,0.007734,0.924048367,0.089819082,-0.084951327,0.105892,0.419111,0.985039,1016.548523
911377,0.048886,-0.133031,0.02345,0.931801939,0.097281429,-0.076005816,0.099164,0.407152,0.996948,1016.548523
911477,0.035721,-0.144502,0.033573,0.933296224,0.109196224,-0.07726398,0.099362,0.394464,1.011333,1016.550232
911577,0.033738,-0.164038,0.036903,0.92588949,0.115159592,-0.081297449,0.100742,0.387698,1.0165,1016.550232
911677,0.040643,-0.174766,0.041654,0.909530918,0.110365612,-0.087535306,0.104649,0.379993,1.019619,1016.550232
911777,0.051381,-0.185003,0.044881,0.899981633,0.101942653,-0.090976735,0.109564,0.374289,1.02234,1016.550232
911877,0.055655,-0.185773,0.045183,0.905832245,0.098266122,-0.086956735,0.114614,0.370915,1.018166,1016.550232
911977,0.051134,-0.185294,0.047437,0.916506429,0.100520714,-0.080947653,0.119633,0.366472,1.015439,1016.550232
912077,0.037598,-0.187859,0.048442,0.929114592,0.112507449,-0.087445306,0.126215,0.363669,1.009291,1016.550232
912177,0.022149,-0.187731,0.047536,0.943999184,0.131500306,-0.097163469,0.133744,0.364193,1.00632,1016.550232
912277,0.015093,-0.179353,0.048863,0.949206122,0.150645408,-0.109153367,0.140855,0.357991,0.997995,1016.550232
912377,0.003414,-0.180593,0.048376,0.948633163,0.159393265,-0.126453061,0.144993,0.360306,0.990101,1016.550232
912477,-0.020913,-0.190935,0.048193,0.954979796,0.149313367,-0.125937551,0.150631,0.35567,0.980853,1016.550232
912577,-0.060015,-0.206443,0.049573,0.964469592,0.135619694,-0.109086837,0.151832,0.351226,0.969103,1016.550232
912677,-0.095801,-0.22516,0.050381,0.969351837,0.122601735,-0.091134694,0.150569,0.345897,0.955803,1016.550232
912777,-0.119987,-0.249005,0.050311,0.975105714,0.121768367,-0.080718061,0.1513,0.341035,0.942529,1016.550232
912877,-0.132756,-0.262665,0.047635,0.984331224,0.118870816,-0.066830612,0.150642,0.333496,0.923104,1016.550232
912977,-0.120354,-0.244787,0.040348,0.988861122,0.11369551,-0.054840204,0.143429,0.327836,0.908277,1016.550232
913077,-0.100601,-0.210077,0.030135,0.986188163,0.112028776,-0.051920204,0.142151,0.318996,0.895299,1016.550232
913177,-0.075248,-0.174924,0.019674,0.979985816,0.107279898,-0.05334551,0.138347,0.311593,0.884395,1016.550232
913277,-0.04685,-0.140192,0.014246,0.982674082,0.101053061,-0.058109388,0.133069,0.30476,0.872517,1016.550232
913377,-0.019972,-0.113374,0.012091,0.98772398,0.095257551,-0.070173469,0.125724,0.298265,0.864662,1016.550232
913477,-0.013548,-0.107994,0.014279,0.990617755,0.086785612,-0.066773469,0.120397,0.295274,0.855986,1016.550232
913577,-0.025224,-0.110574,0.01278,0.995013571,0.08512,-0.053412347,0.113091,0.294829,0.846936,1016.550232
913677,-0.057138,-0.110039,0.015394,0.988136633,0.087964184,-0.036112245,0.10981,0.290456,0.835186,1016.550232
913777,-0.089859,-0.115733,0.016124,0.979043469,0.099040204,-0.022471122,0.10704,0.28859,0.823062,1016.550232
913877,-0.105651,-0.10735,0.013989,0.978623469,0.110920816,-0.017449082,0.101644,0.288894,0.818563,1016.550232
913977,-0.103412,-0.082975,0.010947,0.977707143,0.115536429,-0.022813163,0.10088,0.289014,0.806041,1016.550232
914077,-0.088945,-0.054695,0.007433,0.971404796,0.114069082,-0.020540714,0.101582,0.289038,0.795021,1016.550232
914177,-0.066506,-0.017111,0.001457,0.96677551,0.109785204,-0.005118673,0.100688,0.289318,0.789522,1016.550232
914277,-0.041622,0.021484,-0.007259,0.96729,0.105337449,0.001083163,0.104316,0.290621,0.782078,1016.550232
914377,-0.031355,0.05262,-0.015533,0.972678265,0.10161949,0.003137143,0.107422,0.293851,0.776233,1016.550232
914477,-0.027911,0.075743,-0.022982,0.980172959,0.098820612,0.007039388,0.104965,0.296953,0.774885,1016.550232
914577,-0.022869,0.094332,-0.029953,0.989469082,0.093748163,0.005996327,0.108939,0.301325,0.776115,1016.550232
914677,-0.016139,0.106738,-0.036337,0.998529082,0.090715306,0.001706122,0.113353,0.309507,0.781046,1016.546204
914777,-0.008408,0.111906,-0.042257,1.001969286,0.087897959,0.002047143,0.116307,0.315318,0.783851,1016.546204
914877,0.003688,0.125767,-0.053637,1.002890102,0.089263061,0.008812449,0.121237,0.32354,0.787783,1016.546204
914977,0.011655,0.145453,-0.066068,1.004838571,0.095549592,0.018632755,0.128134,0.332157,0.793241,1016.546204
915077,0.013834,0.167621,-0.080139,1.009748878,0.104020714,0.028678163,0.129058,0.338402,0.798069,1016.546204
915177,0.017062,0.194849,-0.087103,1.022127857,0.117768163,0.033054388,0.136958,0.350988,0.80373,1016.546204
915277,0.021203,0.238572,-0.091803,1.037882653,0.13099102,0.034396735,0.145961,0.361357,0.803267,1016.546204
915377,0.02683,0.282475,-0.092026,1.061700816,0.14431602,0.03003949,0.149794,0.369828,0.812722,1016.546204
915477,0.034116,0.313752,-0.089032,1.092693571,0.153301122,0.018603776,0.15607,0.377143,0.824626,1016.546204
915577,0.034937,0.316066,-0.084192,1.123178878,0.154491633,0.010558673,0.162266,0.387231,0.84118,1016.546204
915677,0.036952,0.288994,-0.08064,1.144982653,0.151597041,0.006915,0.16493,0.391797,0.859454,1016.546204
915777,0.045777,0.252871,-0.074028,1.145677857,0.147645612,0.01120102,0.168532,0.405621,0.882209,1016.546204
915877,0.074907,0.211136,-0.066245,1.126471939,0.151607143,0.023427143,0.172657,0.413057,0.902634,1016.546204
915977,0.101306,0.174111,-0.066209,1.093579592,0.150661837,0.024648367,0.176264,0.424413,0.924762,1016.546204
916077,0.111454,0.14741,-0.067567,1.05367898,0.141040306,0.027270306,0.185858,0.436198,0.946417,1016.546204
916177,0.101157,0.146728,-0.065381,1.019027959,0.129658061,0.025383469,0.198015,0.452097,0.964778,1016.546204
916277,0.086728,0.163849,-0.069432,0.997505918,0.128123571,0.000832347,0.209253,0.464243,0.978437,1016.546204
916377,0.082742,0.184971,-0.059755,1.02106398,0.134183163,-0.046577653,0.222523,0.483405,0.990953,1016.546204
916477,0.083491,0.197194,-0.044328,1.054361429,0.160718571,-0.104235816,0.230735,0.495502,1.00661,1016.546204
916577,0.075356,0.174684,-0.023621,1.076454796,0.176239082,-0.15671551,0.238449,0.507607,1.022267,1016.546204
916677,0.05255,0.093581,0.001106,1.085158469,0.181282245,-0.184543571,0.237842,0.514277,1.02912,1016.546204
916777,0.002772,-0.007863,0.025466,1.078035918,0.176195918,-0.163901633,0.23372,0.520931,1.037471,1016.546204
916877,-0.047614,-0.075549,0.039428,1.079932857,0.161095204,-0.098515306,0.229133,0.524698,1.043671,1016.546204
916977,-0.09051,-0.089276,0.031997,1.062479694,0.159004286,-0.040646327,0.226681,0.530789,1.042475,1016.546204
917077,-0.155502,-0.079747,0.018855,1.022253163,0.162074286,-0.018644082,0.226228,0.535377,1.040705,1016.546204
917177,-0.226716,-0.076035,0.013854,0.965215714,0.170738163,-0.026402449,0.230329,0.54355,1.035615,1016.546204
917277,-0.311161,-0.086568,0.020139,0.901991837,0.181840612,-0.048802041,0.238913,0.551154,1.0305,1016.546204
917377,-0.402649,-0.100808,0.036203,0.837952347,0.202376224,-0.074265918,0.247541,0.557882,1.022837,1016.546204
917477,-0.501358,-0.112611,0.047764,0.771982449,0.232277347,-0.100343469,0.266207,0.559687,1.010423,1016.546204
917577,-0.579475,-0.111755,0.055353,0.719525612,0.246699694,-0.134537653,0.279958,0.562237,0.994535,1016.546204
917677,-0.630624,-0.094539,0.062316,0.701715714,0.249557449,-0.168037449,0.298731,0.561839,0.975997,1016.546204
917777,-0.650931,-0.066006,0.070018,0.721122959,0.258533776,-0.195030816,0.312726,0.555597,0.945632,1016.546204
917877,-0.649058,-0.050667,0.077752,0.776865816,0.268717041,-0.204259082,0.32013,0.542218,0.920407,1016.546204
917977,-0.607309,-0.037999,0.088186,0.858175816,0.269842959,-0.194865,0.322621,0.525623,0.891005,1016.546204
918077,-0.528436,-0.031228,0.098078,0.947516531,0.260370306,-0.176237653,0.318205,0.504349,0.857347,1016.546204
918177,-0.427812,-0.036646,0.096184,1.032746327,0.238034388,-0.15131398,0.305265,0.483562,0.826711,1016.546204
918277,-0.31806,-0.039257,0.073922,1.107044082,0.213940612,-0.122259796,0.294627,0.455305,0.805217,1016.546204
918377,-0.216718,-0.043084,0.039996,1.156716122,0.196008673,-0.104048673,0.277379,0.435233,0.79215,1016.546204
918477,-0.142625,-0.063471,0.007799,1.189707857,0.177600918,-0.11094949,0.259486,0.415781,0.787129,1016.546204
918577,-0.120906,-0.085674,-0.01188,1.184816633,0.165953673,-0.109866939,0.239532,0.399656,0.786285,1016.546204
918677,-0.137546,-0.102758,-0.024645,1.139431224,0.155195612,-0.100027653,0.223871,0.390901,0.796844,1016.546204
918777,-0.156969,-0.136574,-0.03502,1.083425408,0.143647755,-0.076353163,0.204825,0.382965,0.801929,1016.546204
918877,-0.178149,-0.161213,-0.043018,1.036376531,0.136369694,-0.046933878,0.191162,0.377666,0.812667,1016.546204
918977,-0.216365,-0.159938,-0.04171,1.003282959,0.128356939,-0.02872102,0.178565,0.37997,0.820787,1016.546204
919077,-0.244075,-0.148426,-0.025622,0.977085612,0.125895102,-0.023707347,0.176492,0.381778,0.825386,1016.546204
919177,-0.265025,-0.106567,-0.000833,0.959057347,0.129701122,-0.020296429,0.176431,0.389058,0.829766,1016.546204
919277,-0.271471,-0.053598,0.022698,0.939522551,0.147682041,-0.028351939,0.178552,0.398782,0.824251,1016.546204
919377,-0.263253,-0.006987,0.032369,0.912715,0.166732857,-0.039431224,0.190054,0.408637,0.823263,1016.546204
919477,-0.238457,0.019543,0.030132,0.90617898,0.183640204,-0.044538265,0.201656,0.422221,0.817455,1016.546204
919577,-0.203809,0.027951,0.023024,0.915281837,0.195414592,-0.049014592,0.212269,0.434847,0.811096,1016.546204
919677,-0.168049,0.020331,0.0055,0.932642959,0.196791531,-0.053641327,0.229796,0.450683,0.808416,1016.546204
919777,-0.134518,0.001954,-0.016491,0.952429796,0.185447143,-0.060477857,0.243334,0.463592,0.805582,1016.546204
919877,-0.108648,-0.018073,-0.039279,0.970133571,0.173517551,-0.062287653,0.254359,0.474998,0.803671,1016.546204
919977,-0.086274,-0.026369,-0.057475,0.976229388,0.170361122,-0.066024286,0.265304,0.48818,0.806359,1016.546204
920077,-0.062107,-0.028788,-0.071184,0.975200612,0.175627857,-0.074023673,0.272226,0.495374,0.810241,1016.546204
920177,-0.025859,-0.033949,-0.082511,0.97109898,0.186525,-0.07772898,0.274703,0.503234,0.812148,1016.546204
920277,0.015483,-0.035489,-0.089954,0.971797143,0.195948571,-0.066432653,0.274617,0.506979,0.817349,1016.546204
920377,0.054363,-0.029284,-0.094536,0.972801327,0.199313776,-0.051274694,0.273943,0.507027,0.826871,1016.546204
920477,0.087197,-0.016196,-0.095901,0.966707755,0.197533776,-0.040055612,0.267918,0.511461,0.830096,1016.546204
920577,0.102722,-0.001054,-0.095498,0.963815612,0.185958163,-0.024154592,0.264796,0.509677,0.837016,1016.546204
920677,0.112396,0.022483,-0.089392,0.963151122,0.17119602,-0.021529388,0.259631,0.510769,0.847087,1016.546204
920777,0.122732,0.043872,-0.077843,0.967168367,0.163007041,-0.026812551,0.257107,0.513204,0.849212,1016.546204
920877,0.137067,0.059061,-0.069641,0.96203551,0.173070204,-0.033102245,0.253952,0.513316,0.858233,1016.546204
920977,0.15549,0.067682,-0.063032,0.95182602,0.183059796,-0.033809898,0.254314,0.519898,0.866586,1016.546204
921077,0.170047,0.066483,-0.063616,0.939887347,0.194528367,-0.017400306,0.256796,0.525789,0.867891,1016.546204
921177,0.176285,0.082028,-0.069163,0.941816531,0.207172041,-0.001964388,0.262349,0.535811,0.865402,1016.547974
921277,0.17165,0.09581,-0.073127,0.941088265,0.214497551,-0.002591633,0.269948,0.54495,0.859864,1016.547974
921377,0.16179,0.102838,-0.070271,0.944212143,0.224742143,-0.007250102,0.280532,0.561964,0.855733,1016.547974
921477,0.170869,0.105895,-0.059395,0.950134388,0.23417449,-0.008989694,0.29249,0.568726,0.856592,1016.547974
921577,0.187787,0.109887,-0.048695,0.962956939,0.238435,0.001791224,0.301593,0.582823,0.851309,1016.547974
921677,0.200833,0.118318,-0.043558,0.974167551,0.233438061,0.01378898,0.315014,0.592952,0.854345,1016.547974
921777,0.205816,0.125068,-0.041081,0.984514796,0.226723061,0.022219694,0.325337,0.603836,0.86343,1016.547974
921877,0.205384,0.128109,-0.040212,0.987581224,0.218271122,0.016709286,0.335039,0.613916,0.878986,1016.547974
921977,0.203179,0.134678,-0.035247,0.983242551,0.208763469,0.010595714,0.339294,0.621191,0.892389,1016.547974
922077,0.189509,0.144837,-0.023204,0.971221633,0.19958602,0.001360918,0.342951,0.624246,0.910586,1016.547974
922177,0.176297,0.143163,-0.009466,0.950771224,0.191724694,-0.006184796,0.343705,0.628562,0.924335,1016.547974
922277,0.165715,0.129628,0.005264,0.935113469,0.185225408,-0.007011327,0.346454,0.629383,0.937407,1016.547974
922377,0.157064,0.105709,0.020736,0.933766224,0.183276122,0.000825816,0.342776,0.631424,0.948029,1016.547974
922477,0.157372,0.09122,0.036702,0.939682041,0.179581429,0.012045102,0.342182,0.624738,0.952197,1016.547974
922577,0.170838,0.092833,0.054562,0.950099082,0.172163571,0.028574388,0.339482,0.626715,0.963819,1016.547974
922677,0.191173,0.101575,0.072076,0.959033878,0.162692449,0.041479796,0.341421,0.627536,0.966869,1016.547974
922777,0.211064,0.111753,0.085662,0.971502653,0.159433878,0.051046735,0.342279,0.628155,0.974417,1016.547974
922877,0.230249,0.121537,0.098486,0.97412051,0.165680102,0.059681939,0.346793,0.630149,0.97302,1016.547974
922977,0.234012,0.126968,0.106809,0.975515102,0.184380102,0.063771429,0.353791,0.638034,0.972929,1016.547974
923077,0.213046,0.135483,0.111742,0.977620102,0.206473367,0.057833265,0.363795,0.64592,0.971839,1016.547974
923177,0.184929,0.146964,0.113364,0.975769694,0.224460102,0.042616122,0.373794,0.655774,0.971351,1016.547974
923277,0.158536,0.155748,0.111841,0.982519796,0.242124796,0.027894286,0.387315,0.664674,0.968814,1016.547974
923377,0.140909,0.154194,0.107746,0.991841224,0.244969898,0.015042857,0.397371,0.675669,0.965377,1016.547974
923477,0.12668,0.128393,0.102027,1.000124898,0.233897143,0.011703571,0.403742,0.679263,0.97158,1016.547974
923577,0.120186,0.080955,0.099648,1.00977551,0.216741837,0.015283469,0.409678,0.687494,0.975013,1016.547974
923677,0.110817,0.026697,0.098093,1.020917959,0.200243776,0.026923878,0.411053,0.687655,0.981536,1016.547974
923777,0.10683,0.001407,0.101559,1.035200408,0.185215918,0.031929286,0.414384,0.688685,0.99011,1016.547974
923877,0.097954,0.000532,0.102172,1.039916531,0.176668265,0.029303571,0.41772,0.692206,0.998811,1016.547974
923977,0.08196,-0.006641,0.104394,1.032442041,0.180591633,0.017536939,0.416497,0.695108,1.011483,1016.547974
924077,0.061638,-0.012299,0.107721,1.027789592,0.184949286,0.007253673,0.416759,0.693003,1.023903,1016.547974
924177,0.041403,-0.009071,0.11379,1.036228571,0.188670816,0.001895408,0.415447,0.697657,1.041675,1016.547974
924277,0.017725,-0.014118,0.118476,1.041947347,0.195410102,-0.009592347,0.414669,0.696942,1.056669,1016.547974
924377,0.01079,-0.021072,0.122324,1.04617949,0.202732959,-0.013326633,0.415467,0.699884,1.067843,1016.547974
924477,0.007867,-0.022037,0.120262,1.05414949,0.209904694,-0.022383673,0.411719,0.698767,1.081811,1016.547974
924577,0.008385,-0.026578,0.111233,1.048340918,0.216340204,-0.029860102,0.412459,0.700568,1.095932,1016.547974
924677,0.004767,-0.029599,0.096979,1.044042041,0.20909051,-0.021981531,0.412642,0.700737,1.112977,1016.547974
924777,0.006692,-0.020466,0.084838,1.038114388,0.198497041,-0.011986939,0.411503,0.698897,1.120397,1016.547974
924877,0.014644,-0.016997,0.076956,1.026829592,0.188757857,-0.007766429,0.413151,0.702933,1.139645,1016.547974
924977,0.023688,-0.018157,0.075589,1.013771122,0.176845918,0.000539592,0.410504,0.70356,1.148191,1016.547974
925077,0.036199,-0.010582,0.074693,1.003107347,0.164413367,-3.79E-05,0.412287,0.700507,1.159061,1016.547974
925177,0.055909,0.001931,0.075802,0.992820306,0.157770102,-0.004181327,0.413972,0.699681,1.175555,1016.547974
925277,0.078412,0.030553,0.073417,0.986200816,0.158395714,-0.016636122,0.412289,0.697728,1.185474,1016.547974
925377,0.099797,0.075207,0.066986,0.993147041,0.160832143,-0.035425306,0.412184,0.701425,1.191675,1016.547974
925477,0.111897,0.119318,0.057181,1.006209898,0.168540306,-0.056766939,0.414838,0.695552,1.208915,1016.547974
925577,0.113039,0.150615,0.050364,1.013841633,0.18019949,-0.075015714,0.410597,0.692474,1.222282,1016.547974
925677,0.107815,0.147765,0.044565,1.01988551,0.189607347,-0.083372551,0.403866,0.689435,1.235647,1016.547974
925777,0.104432,0.122578,0.038518,1.022403571,0.191229082,-0.080875,0.397771,0.685754,1.241465,1016.547974
925877,0.107531,0.089332,0.035742,1.011453061,0.181955612,-0.072596735,0.38906,0.679805,1.253678,1016.547974
925977,0.120627,0.059993,0.031296,0.987004592,0.163300204,-0.065733776,0.381959,0.676115,1.259996,1016.547974
926077,0.145847,0.050958,0.027495,0.958236837,0.14408551,-0.05469551,0.378901,0.668545,1.262613,1016.549683
926177,0.173716,0.065144,0.019129,0.929385306,0.124937449,-0.059926939,0.378389,0.665539,1.26296,1016.549683
926277,0.200441,0.077959,0.016501,0.905431531,0.104247041,-0.074287245,0.376033,0.662951,1.25531,1016.549683
926377,0.227653,0.096975,0.019459,0.894410408,0.088160816,-0.077663776,0.376263,0.662058,1.242738,1016.549683
926477,0.243021,0.133927,0.024916,0.90661,0.080565918,-0.083949592,0.381014,0.656232,1.227415,1016.549683
926577,0.244763,0.174108,0.029022,0.922551224,0.08158398,-0.093108571,0.387724,0.657728,1.214973,1016.549683
926677,0.229614,0.193217,0.034802,0.942340408,0.093493163,-0.101697755,0.386964,0.65538,1.201825,1016.549683
926777,0.200114,0.204359,0.037816,0.967804694,0.114319694,-0.101260102,0.388204,0.651531,1.188102,1016.549683
926877,0.160666,0.21588,0.03473,0.995434184,0.139523571,-0.090810714,0.386439,0.649176,1.175454,1016.549683
926977,0.106965,0.234674,0.026775,1.021830408,0.156342857,-0.075759592,0.379543,0.646015,1.170776,1016.549683
927077,0.054997,0.263148,0.017527,1.043118776,0.162186735,-0.064443571,0.374113,0.637303,1.166818,1016.549683
927177,0.016724,0.282291,0.007808,1.065428571,0.156517653,-0.060867959,0.360145,0.631023,1.166984,1016.549683
927277,0.004783,0.288125,0.004333,1.089043776,0.150426429,-0.050349184,0.349105,0.62206,1.170022,1016.549683
927377,0.00559,0.273411,0.002707,1.096479082,0.142515918,-0.032254082,0.332077,0.612172,1.173507,1016.549683
927477,0.008101,0.243667,0.006856,1.085936633,0.136478163,-0.013422449,0.317369,0.600316,1.185913,1016.549683
927577,0.009038,0.19872,0.008777,1.070877245,0.134827857,-0.002697143,0.30373,0.592598,1.195024,1016.549683
927677,0.016002,0.142224,0.007472,1.045370204,0.126258571,-0.004356224,0.288963,0.58406,1.211106,1016.549683
927777,0.039576,0.082349,0.009965,1.01136449,0.114188673,-0.008405204,0.276246,0.576633,1.224242,1016.549683
927877,0.082847,0.03825,0.016286,0.986707653,0.095562449,-0.001657857,0.264002,0.565661,1.238199,1016.549683
927977,0.129978,0.018241,0.022041,0.966501837,0.080375306,0.006144082,0.258242,0.559071,1.252387,1016.549683
928077,0.164356,0.012323,0.030167,0.946854898,0.073122245,0.014053878,0.254547,0.556604,1.26328,1016.549683
928177,0.184235,0.000422,0.041428,0.925550306,0.077643061,0.010153163,0.251876,0.554193,1.272674,1016.549683
928277,0.197073,-0.023034,0.06023,0.91064102,0.082513061,0.011076531,0.253793,0.552972,1.276622,1016.549683
928377,0.207708,-0.037156,0.078862,0.904756837,0.087104592,0.015697041,0.25933,0.554524,1.273701,1016.549683
928477,0.21326,-0.037451,0.094577,0.909768878,0.083589796,0.019198673,0.268728,0.553209,1.277152,1016.549683
928577,0.218667,-0.03307,0.103543,0.919589082,0.079186327,0.016135918,0.278465,0.555252,1.262737,1016.549683
928677,0.210653,-0.031015,0.114889,0.930597347,0.075102143,0.016804898,0.287151,0.558162,1.251371,1016.549683
928777,0.19546,-0.025749,0.116715,0.944791939,0.075056327,0.011472551,0.292436,0.561844,1.235531,1016.549683
928877,0.181085,-0.023892,0.115803,0.960579286,0.079921122,0.007379286,0.304092,0.569617,1.225919,1016.549683
928977,0.170231,-0.024308,0.119108,0.970916122,0.087059286,0.003872857,0.31231,0.573604,1.213105,1016.549683
929077,0.172209,-0.018052,0.121589,0.971123469,0.095651939,0.001636633,0.316063,0.582669,1.200043,1016.549683
929177,0.173926,-0.017231,0.120049,0.965094694,0.096826327,0.006917959,0.31673,0.583593,1.191072,1016.549683
929277,0.158679,-0.02069,0.118205,0.963444592,0.091765306,0.014247959,0.320434,0.586084,1.179679,1016.549683
929377,0.124419,-0.024513,0.116094,0.96764449,0.076009082,0.021528163,0.319198,0.590246,1.166362,1016.549683
929477,0.08882,-0.036244,0.119511,0.964854592,0.067160306,0.029526939,0.318838,0.590117,1.158839,1016.549683
929577,0.064651,-0.059899,0.126969,0.962471224,0.068176633,0.032329796,0.319065,0.592688,1.146946,1016.549683
929677,0.053325,-0.074006,0.130355,0.959173367,0.071026735,0.035467857,0.319265,0.595685,1.136577,1016.549683
929777,0.041213,-0.080477,0.126565,0.94975949,0.077995408,0.034112755,0.320436,0.594632,1.127004,1016.549683
929877,0.024209,-0.084152,0.119336,0.938200714,0.081972551,0.034456735,0.322056,0.592454,1.119881,1016.549683
929977,0.012266,-0.087241,0.103691,0.934312143,0.089255714,0.035925102,0.321296,0.589608,1.106708,1016.549683
930077,0.007579,-0.093067,0.086621,0.928325612,0.091537347,0.028680816,0.323366,0.581348,1.101278,1016.549683
930177,0.010965,-0.1079,0.068394,0.936531837,0.08281398,0.029146531,0.321494,0.575738,1.093976,1016.549683
930277,0.012801,-0.116005,0.054283,0.947044796,0.074292959,0.034978265,0.3171,0.5686,1.088095,1016.549683
930377,0.01946,-0.11503,0.043985,0.96236602,0.06696449,0.048615612,0.311663,0.555902,1.083935,1016.549683
930477,0.026991,-0.111726,0.035015,0.970661531,0.061558163,0.059665306,0.307325,0.549407,1.075081,1016.549683
930577,0.043301,-0.108657,0.024899,0.974620714,0.055857959,0.062284184,0.302907,0.538734,1.070022,1016.549683
930677,0.057905,-0.108793,0.013855,0.982447041,0.051973776,0.065782653,0.298499,0.529081,1.064515,1016.549683
930777,0.072435,-0.102074,0.002746,0.988291633,0.050737449,0.070586837,0.295501,0.523648,1.064234,1016.549683
930877,0.080766,-0.091198,-0.011573,0.990121939,0.049462653,0.07006398,0.286109,0.51258,1.058649,1016.551392
930977,0.0829,-0.07425,-0.023368,0.989931939,0.048658776,0.070178776,0.283744,0.505009,1.050745,1016.551392
931077,0.089418,-0.055014,-0.030448,0.988763163,0.05108949,0.072048265,0.277868,0.499414,1.044441,1016.551392
931177,0.102576,-0.03957,-0.037673,0.982311122,0.053615918,0.071467449,0.272053,0.497451,1.035315,1016.551392
931277,0.123096,-0.030595,-0.039389,0.978802245,0.052642653,0.073408367,0.267648,0.494251,1.030638,1016.551392
931377,0.136646,-0.031381,-0.044001,0.983250714,0.052555,0.071544694,0.267246,0.490539,1.024936,1016.551392
931477,0.1439,-0.032318,-0.044157,0.98767602,0.055402347,0.069364796,0.267864,0.490844,1.018439,1016.551392
931577,0.139707,-0.039399,-0.049383,0.996161939,0.064396531,0.073231939,0.269019,0.496694,1.010722,1016.551392
931677,0.123324,-0.033228,-0.0544,1.00081602,0.069441531,0.068779796,0.268151,0.501009,1.004427,1016.551392
931777,0.100388,-0.016127,-0.062082,1.000587245,0.078308673,0.064023878,0.272769,0.508724,0.998312,1016.551392
931877,0.077104,-0.008874,-0.074086,1.000783367,0.09275102,0.060866327,0.274004,0.512798,0.985996,1016.551392
931977,0.057837,-0.012489,-0.091202,1.009988878,0.10266449,0.061725816,0.276181,0.522666,0.977482,1016.551392
932077,0.048157,-0.022754,-0.103907,1.023306735,0.106826837,0.070597755,0.27881,0.522489,0.96996,1016.551392
932177,0.03098,-0.02327,-0.117012,1.037785102,0.113545204,0.093729286,0.279364,0.528082,0.967741,1016.551392
932277,0.017738,0.005616,-0.133817,1.062311429,0.123166939,0.118841429,0.282474,0.528348,0.961245,1016.551392
932377,0.011707,0.052397,-0.152623,1.09003449,0.129390918,0.131157041,0.285867,0.53301,0.966998,1016.551392
932477,0.017697,0.083767,-0.167815,1.101491224,0.137609694,0.121277653,0.287634,0.536362,0.979697,1016.553101
932577,0.018896,0.079547,-0.177812,1.090111429,0.139757857,0.107592653,0.288785,0.540904,0.998969,1016.553101
932677,0.026965,0.054507,-0.187099,1.068482347,0.122059796,0.104295918,0.295951,0.540987,1.015516,1016.553101
932777,0.054578,0.034441,-0.196384,1.055244592,0.08651449,0.106125612,0.29954,0.547836,1.037915,1016.553101
932877,0.100377,0.043106,-0.208104,1.067415204,0.05310102,0.102816224,0.304138,0.551229,1.059137,1016.553101
932977,0.15031,0.081951,-0.207033,1.101022449,0.031900612,0.081965714,0.309234,0.554615,1.080359,1016.553101
933077,0.201447,0.097765,-0.182939,1.117361122,0.032640816,0.030867959,0.313159,0.558057,1.111102,1016.553101
933177,0.232901,0.050422,-0.151988,1.110001939,0.042373776,-0.002089796,0.31389,0.565789,1.126529,1016.553101
933277,0.264806,-0.02558,-0.121076,1.105145714,0.050418265,0.004439796,0.312052,0.575835,1.14658,1016.553101
933377,0.288523,-0.079249,-0.108496,1.110864694,0.057942959,0.022015306,0.316337,0.584177,1.158534,1016.553101
933477,0.292515,-0.095935,-0.110295,1.11096398,0.08226551,0.025715204,0.317593,0.601392,1.173943,1016.553101
933577,0.292305,-0.097601,-0.120609,1.111419694,0.112909898,0.001085,0.325395,0.616205,1.185229,1016.553101
933677,0.302764,-0.111643,-0.132689,1.102658878,0.143003469,-0.040810306,0.332664,0.632424,1.19859,1016.553101
933777,0.325478,-0.139053,-0.144101,1.093298571,0.165742347,-0.065054286,0.33869,0.654275,1.19921,1016.553101
933877,0.356733,-0.164009,-0.157974,1.081320408,0.169512449,-0.054198673,0.347654,0.669007,1.201474,1016.553101
933977,0.373638,-0.164746,-0.167969,1.068364388,0.153012347,-0.033151939,0.358124,0.689695,1.204044,1016.553101
934077,0.356795,-0.154279,-0.171956,1.051413163,0.129977755,-0.01647898,0.363647,0.703606,1.203757,1016.553101
934177,0.317134,-0.135566,-0.166585,1.031466735,0.117807143,-0.010166429,0.37521,0.721553,1.200677,1016.553101
934277,0.262968,-0.116534,-0.155125,1.009437857,0.120765,-0.010957551,0.385285,0.738054,1.19702,1016.553101
934377,0.218546,-0.09052,-0.136292,0.988547653,0.136248469,-0.02230898,0.395793,0.754378,1.196862,1016.553101
934477,0.175526,-0.062554,-0.118577,0.957241122,0.14925398,-0.045850102,0.410757,0.765599,1.197451,1016.553101
934577,0.121391,-0.046842,-0.100195,0.917093878,0.155769592,-0.068492041,0.420309,0.783032,1.195344,1016.553101
934677,0.051618,-0.039895,-0.087993,0.885717959,0.159305306,-0.090329592,0.433846,0.790983,1.191756,1016.553101
934777,-0.027471,-0.044076,-0.079816,0.859955102,0.175481939,-0.107765816,0.44645,0.802582,1.185347,1016.553101
934877,-0.094678,-0.051944,-0.079692,0.847265408,0.198877551,-0.116808878,0.462101,0.810814,1.175262,1016.553101
934977,-0.141733,-0.035716,-0.085851,0.85583449,0.227057653,-0.139670204,0.476239,0.818524,1.166152,1016.553101
935077,-0.174179,-0.000256,-0.097762,0.869308265,0.254803673,-0.17315,0.489328,0.817683,1.158608,1016.553101
935177,-0.177323,0.023905,-0.114276,0.88555602,0.280969388,-0.196380306,0.496128,0.817925,1.141091,1016.553101
935277,-0.166342,0.039537,-0.132243,0.90247051,0.303467959,-0.207938367,0.494895,0.808707,1.125588,1016.553101
935377,-0.146867,0.037937,-0.151085,0.920966837,0.303847041,-0.205419286,0.495084,0.79977,1.11411,1016.553101
935477,-0.129063,0.025009,-0.166217,0.953099286,0.283929082,-0.182903163,0.489864,0.779204,1.097022,1016.553101
935577,-0.095747,0.018725,-0.17481,0.992697653,0.253026735,-0.146607653,0.482471,0.760679,1.090057,1016.553101
935677,-0.047838,0.03068,-0.179245,1.038116429,0.228675612,-0.11445398,0.471558,0.739645,1.084463,1016.553101
935777,0.004842,0.058853,-0.180566,1.067770918,0.204587755,-0.092195918,0.456072,0.719937,1.083942,1016.549011
935877,0.042358,0.095945,-0.173281,1.08423398,0.182414796,-0.080772245,0.435918,0.700815,1.093466,1016.549011
