time,gx,gy,gz,ax,ay,az,Mag_X,Mag_Y,Mag_Z,p
342628,0.032218,-0.129338,0.065163,0.989839388,0.01266949,0.120420306,-0.173915,-0.112706,-0.285977,1016.549011
342728,0.032034,-0.1165,0.066431,0.988659898,0.011170102,0.118584184,-0.17491,-0.111694,-0.285927,1016.549011
342828,0.03392,-0.100103,0.064431,0.985833061,0.01142,0.112991837,-0.171914,-0.107756,-0.285722,1016.549011
342928,0.043266,-0.083837,0.060594,0.984038265,0.007191429,0.109680612,-0.17087,-0.107153,-0.288196,1016.549011
343028,0.052541,-0.066913,0.059121,0.987578061,0.004645408,0.103628571,-0.173387,-0.106189,-0.286646,1016.550781
343128,0.06771,-0.058153,0.05581,0.996843878,0.003457041,0.100948673,-0.171879,-0.103698,-0.287019,1016.550781
343228,0.069609,-0.053904,0.052327,1.007023673,0.00671102,0.092876735,-0.170804,-0.101029,-0.29089,1016.550781
343328,0.062878,-0.067705,0.05043,1.017003776,0.006852857,0.088446837,-0.170754,-0.099414,-0.293313,1016.550781
343428,0.042827,-0.079659,0.050921,1.019834184,0.011593367,0.094365714,-0.16824,-0.096416,-0.294159,1016.550781
343528,0.029606,-0.089217,0.048024,1.019901122,0.013012347,0.102911531,-0.169198,-0.095806,-0.296133,1016.550781
343628,0.027978,-0.089134,0.042562,1.024827245,0.013648061,0.11362102,-0.165649,-0.092229,-0.298953,1016.550781
343728,0.028202,-0.05838,0.036468,1.026199184,0.002731837,0.112773673,-0.16414,-0.094198,-0.300054,1016.550781
343828,0.027009,-0.026883,0.032474,1.019271633,-0.011675102,0.104437245,-0.16408,-0.09206,-0.302951,1016.550781
343928,0.027477,-0.020228,0.034592,1.010665918,-0.020654184,0.099189796,-0.160095,-0.092123,-0.30295,1016.550781
344028,0.038879,-0.028699,0.036215,1.003914184,-0.025361429,0.09839398,-0.160594,-0.092614,-0.302975,1016.550781
344128,0.046649,-0.04301,0.040815,0.997838469,-0.023863571,0.096398571,-0.15454,-0.091021,-0.306896,1016.550781
344228,0.053929,-0.051956,0.045989,0.990222959,-0.020026122,0.092460714,-0.151014,-0.089984,-0.308843,1016.550781
344328,0.053372,-0.059746,0.045662,0.980680408,-0.014766633,0.087231224,-0.150969,-0.09086,-0.311393,1016.550781
344428,0.049227,-0.060203,0.043107,0.972421633,-0.01198,0.082519286,-0.148472,-0.09237,-0.311968,1016.550781
344528,0.04124,-0.060011,0.040157,0.966763776,-0.006258571,0.079488367,-0.146016,-0.091011,-0.309892,1016.550781
344628,0.038374,-0.043016,0.032122,0.964282143,-0.008767449,0.077263265,-0.143441,-0.090336,-0.314364,1016.55011
344728,0.034435,-0.03542,0.026857,0.966275204,-0.013930408,0.072222347,-0.140902,-0.089258,-0.316812,1016.55011
344828,0.026531,-0.033872,0.024194,0.972693571,-0.019092347,0.070477857,-0.141353,-0.08913,-0.319311,1016.55011
344928,0.011998,-0.040895,0.025539,0.979722041,-0.022367857,0.072693265,-0.140838,-0.090086,-0.320361,1016.55011
345028,-0.006317,-0.05202,0.031894,0.985459898,-0.026584388,0.074223061,-0.135792,-0.089997,-0.323858,1016.55011
345128,-0.021289,-0.058129,0.037288,0.990894286,-0.0257,0.076484286,-0.133297,-0.087545,-0.32373,1016.55011
345228,-0.028006,-0.049535,0.040237,1.001022245,-0.021406327,0.076025408,-0.130777,-0.087014,-0.325203,1016.55011
345328,-0.027982,-0.020277,0.037997,1.021986327,-0.017615,0.077361122,-0.130192,-0.084812,-0.3296,1016.55011
345428,-0.031329,0.004749,0.037097,1.040649898,-0.016025102,0.07226,-0.126177,-0.083807,-0.331047,1016.55011
345528,-0.038372,0.012758,0.037468,1.05079898,-0.015494796,0.067818776,-0.125658,-0.082272,-0.331971,1016.55011
345628,-0.047659,0.006176,0.041058,1.049137959,-0.012469694,0.07183051,-0.125064,-0.080544,-0.336892,1016.55011
345728,-0.058918,-0.004846,0.039432,1.039098776,-0.009319898,0.075513061,-0.123041,-0.079009,-0.338315,1016.55011
345828,-0.069313,-0.015164,0.037032,1.022103163,-0.001687551,0.079806224,-0.125534,-0.080464,-0.338392,1016.55011
345928,-0.072174,-0.029009,0.026091,0.997449388,0.006253265,0.080103673,-0.1276,-0.074671,-0.333589,1016.55011
346028,-0.066147,-0.046689,0.015138,0.976715,0.006033061,0.07541898,-0.126591,-0.078126,-0.334767,1016.55011
346128,-0.055836,-0.071568,0.00493,0.963956633,0.003620918,0.070696327,-0.12905,-0.076021,-0.336165,1016.55011
346228,-0.048437,-0.091499,-0.00245,0.955656122,-0.006632857,0.07186898,-0.12856,-0.075057,-0.335614,1016.55011
346328,-0.045152,-0.099417,-0.00569,0.953066837,-0.021408265,0.070863367,-0.131487,-0.071377,-0.338436,1016.55011
346428,-0.048631,-0.096733,-0.000151,0.959728061,-0.036195,0.074325408,-0.129414,-0.068227,-0.342282,1016.55011
346528,-0.032574,-0.081101,0.007478,0.973836429,-0.047367347,0.074356224,-0.128829,-0.066523,-0.346704,1016.55011
346628,-0.004345,-0.062975,0.011646,0.981879796,-0.04893102,0.077411224,-0.126738,-0.062826,-0.351523,1016.55011
346728,0.00616,-0.054864,0.010849,0.993759796,-0.056376735,0.075606429,-0.127262,-0.061894,-0.349973,1016.55011
346828,0.011527,-0.036021,0.012094,1.019180102,-0.064601531,0.070307551,-0.125214,-0.061781,-0.352971,1016.55011
346928,0.019206,-0.02171,0.015678,1.026665816,-0.070985714,0.075086633,-0.126668,-0.060166,-0.354895,1016.55011
347028,0.027331,-0.036751,0.026116,1.040791735,-0.074715408,0.088018571,-0.12871,-0.06175,-0.352473,1016.55011
347128,0.033309,-0.055856,0.03842,1.056435204,-0.068473163,0.103462449,-0.128223,-0.062778,-0.352023,1016.55011
347228,0.033857,-0.064544,0.051514,1.062532755,-0.055407755,0.108793469,-0.130754,-0.064828,-0.350127,1016.55011
347328,0.020958,-0.062511,0.058367,1.054148163,-0.042963571,0.101752857,-0.128255,-0.065342,-0.350651,1016.55011
347428,0.009411,-0.054795,0.059044,1.035606327,-0.032452551,0.094272041,-0.131744,-0.066283,-0.350703,1016.55011
347528,0.016902,-0.037332,0.050815,1.017220816,-0.022554898,0.092530102,-0.131264,-0.066339,-0.349703,1016.55011
347628,0.037477,-0.026504,0.038012,1.002053673,-0.015115,0.089050102,-0.130795,-0.066917,-0.348229,1016.55011
347728,0.057253,-0.027715,0.021282,0.996636429,-0.013580408,0.089012449,-0.127847,-0.069054,-0.346331,1016.55011
347828,0.079018,-0.046229,0.006086,1.000461633,-0.014647857,0.094473571,-0.12938,-0.070123,-0.344383,1016.55188
347928,0.104296,-0.066778,-0.001514,1.008148061,-0.018892449,0.104918673,-0.128868,-0.072574,-0.345509,1016.55188
348028,0.120459,-0.091862,-0.00633,1.001718469,-0.01882949,0.111825204,-0.130422,-0.074688,-0.342612,1016.55188
348128,0.127689,-0.110766,-0.011265,0.99414102,-0.022822449,0.11593398,-0.12751,-0.076423,-0.338689,1016.55188
348228,0.129967,-0.113866,-0.013414,0.979344796,-0.02558398,0.112585714,-0.128552,-0.080987,-0.336919,1016.55188
348328,0.13221,-0.110369,-0.015178,0.961081939,-0.03006898,0.106048061,-0.129555,-0.079999,-0.336369,1016.55188
348428,0.132833,-0.105411,-0.013456,0.94548449,-0.032828673,0.100066224,-0.128586,-0.084547,-0.335597,1016.55188
348528,0.12603,-0.106387,-0.011684,0.935811224,-0.032322653,0.094607245,-0.129075,-0.084515,-0.336097,1016.55188
348628,0.117408,-0.117667,-0.009017,0.931188776,-0.029242347,0.090443673,-0.129561,-0.082988,-0.336521,1016.55188
348728,0.105987,-0.138103,-0.004616,0.935179388,-0.027698265,0.087818571,-0.131586,-0.08552,-0.335149,1016.55188
348828,0.09251,-0.167228,-0.002749,0.940701429,-0.025867245,0.092497041,-0.129065,-0.084491,-0.336597,1016.55188
348928,0.076134,-0.185327,-0.002639,0.955582551,-0.02458551,0.089923673,-0.130567,-0.083495,-0.336047,1016.55188
349028,0.064562,-0.196251,-0.001153,0.973835612,-0.024938061,0.101790306,-0.133996,-0.0818,-0.33897,1016.55188
349128,0.051083,-0.183839,-0.001271,0.987457143,-0.023587245,0.104818776,-0.137554,-0.080443,-0.334897,1016.55188
349228,0.030916,-0.170565,-0.008204,0.990337857,-0.024405306,0.105228776,-0.140464,-0.077712,-0.338769,1016.55188
349328,0.014151,-0.168724,-0.010645,0.991203673,-0.029595816,0.109689388,-0.146476,-0.076219,-0.336696,1016.55188
349428,0.00625,-0.166877,-0.014579,0.995772959,-0.034336735,0.123387551,-0.149968,-0.073696,-0.33607,1016.55188
349528,0.011848,-0.15052,-0.018745,1.000825408,-0.041056224,0.12796,-0.150982,-0.073231,-0.335045,1016.55188
349628,0.015636,-0.129424,-0.0223,1.006517755,-0.043345204,0.129802959,-0.156008,-0.072275,-0.332497,1016.55188
349728,0.014455,-0.105215,-0.022402,1.008629388,-0.046772143,0.126515204,-0.156505,-0.071769,-0.332472,1016.55188
349828,0.00839,-0.095848,-0.020356,1.002206735,-0.041625102,0.125806122,-0.163518,-0.07325,-0.330551,1016.55188
349928,0.003666,-0.089999,-0.021907,0.994721633,-0.038879184,0.130341531,-0.165579,-0.074881,-0.327129,1016.55188
350028,0.002445,-0.08548,-0.02693,0.992015816,-0.036368367,0.137486429,-0.166535,-0.073274,-0.329052,1016.55188
350128,-0.005648,-0.076021,-0.031766,0.989389898,-0.035152143,0.137686122,-0.167048,-0.070823,-0.327926,1016.55188
350228,-0.014119,-0.063536,-0.033741,0.987333673,-0.036139286,0.136713673,-0.16805,-0.074295,-0.328104,1016.55188
350328,-0.0191,-0.054945,-0.035974,0.982289898,-0.03625449,0.132809286,-0.166032,-0.075749,-0.329679,1016.55188
350428,-0.021938,-0.050522,-0.037537,0.981872245,-0.034511531,0.131045612,-0.1646,-0.074447,-0.326104,1016.55188
350528,-0.02465,-0.05183,-0.041399,0.980803163,-0.035532551,0.134169388,-0.166598,-0.077404,-0.326257,1016.55188
350628,-0.025072,-0.045323,-0.043783,0.979847143,-0.037221939,0.139752959,-0.165093,-0.076906,-0.326731,1016.55188
350728,-0.028208,-0.041333,-0.046013,0.978585714,-0.036642449,0.139967449,-0.163066,-0.077838,-0.32878,1016.55188
350828,-0.028018,-0.041614,-0.048865,0.977075714,-0.035235408,0.145022143,-0.165091,-0.075411,-0.326654,1016.55188
350928,-0.021853,-0.049379,-0.057669,0.972865,-0.031728878,0.14897898,-0.165591,-0.0764,-0.326705,1016.55188
351028,-0.012929,-0.053105,-0.06664,0.971862041,-0.030749796,0.152774286,-0.164545,-0.074801,-0.329128,1016.549561
351128,-0.009202,-0.04515,-0.077724,0.972562755,-0.033207245,0.154479082,-0.162571,-0.074382,-0.328102,1016.549561
351228,-0.005749,-0.039021,-0.083723,0.970550102,-0.038703061,0.155300408,-0.164996,-0.074174,-0.331602,1016.549561
351328,-0.007871,-0.036583,-0.083739,0.970653878,-0.043461531,0.156376633,-0.162506,-0.074214,-0.331601,1016.549561
351428,-0.012828,-0.043104,-0.08178,0.969942449,-0.044962755,0.163841327,-0.162952,-0.071096,-0.333948,1016.549561
351528,-0.017796,-0.055433,-0.077759,0.966613265,-0.043704796,0.170316122,-0.162014,-0.072751,-0.331025,1016.549561
351628,-0.01827,-0.065203,-0.068931,0.967181327,-0.043022551,0.181245,-0.162463,-0.071128,-0.333448,1016.549561
351728,-0.021936,-0.067241,-0.065788,0.969837143,-0.047627347,0.192551122,-0.163499,-0.072703,-0.331525,1016.549561
351828,-0.025917,-0.0638,-0.063404,0.971800204,-0.052614898,0.193117245,-0.162494,-0.073193,-0.33205,1016.549561
351928,-0.034295,-0.062319,-0.062136,0.967854184,-0.05951449,0.192057347,-0.163511,-0.074222,-0.331101,1016.549561
352028,-0.034636,-0.061927,-0.061897,0.968004388,-0.067753673,0.189161327,-0.161547,-0.074824,-0.329627,1016.549561
352128,-0.018949,-0.058801,-0.058247,0.96619449,-0.069608265,0.181674388,-0.162009,-0.075218,-0.331652,1016.549561
352228,-0.013486,-0.070441,-0.057827,0.960751939,-0.073891224,0.190697449,-0.164069,-0.07685,-0.32823,1016.549561
352328,-0.008267,-0.065069,-0.055843,0.968766122,-0.078244388,0.198783571,-0.161649,-0.080047,-0.324883,1016.549561
352428,0.003355,-0.057885,-0.052322,0.963271939,-0.075654694,0.206868061,-0.162642,-0.082996,-0.325535,1016.549561
352528,0.020252,-0.08209,-0.048691,0.953348673,-0.070772347,0.202969898,-0.161242,-0.084258,-0.320588,1016.549561
352628,0.01823,-0.113035,-0.043603,0.953529388,-0.067221224,0.201401735,-0.161266,-0.087295,-0.31974,1016.549561
352728,0.028111,-0.126003,-0.039939,0.964058776,-0.06484398,0.212423367,-0.16128,-0.08981,-0.319368,1016.549561
352828,0.035464,-0.112987,-0.037085,0.97155449,-0.06662949,0.208031224,-0.15936,-0.094494,-0.316097,1016.549561
352928,0.039914,-0.104626,-0.036819,0.970558265,-0.065072857,0.196439082,-0.159892,-0.097548,-0.31475,1016.549561
353028,0.045984,-0.109124,-0.037673,0.973821837,-0.064257041,0.203674388,-0.160885,-0.096038,-0.314674,1016.549561
353128,0.05979,-0.121138,-0.038366,0.981524184,-0.061744184,0.220926531,-0.157509,-0.100842,-0.309404,1016.549561
353228,0.067101,-0.135919,-0.039154,0.990100714,-0.064175204,0.234417959,-0.155079,-0.103517,-0.306531,1016.549561
353328,0.064391,-0.141772,-0.04233,0.999552041,-0.064951837,0.244109388,-0.152615,-0.108089,-0.30576,1016.549561
353428,0.060708,-0.138132,-0.045866,1.012341633,-0.064736939,0.257912959,-0.152139,-0.110138,-0.304862,1016.549561
353528,0.050107,-0.125627,-0.053967,1.020291531,-0.064380306,0.265061224,-0.150671,-0.114694,-0.30409,1016.549561
353628,0.036954,-0.1071,-0.063196,1.020676531,-0.06991051,0.263538163,-0.144248,-0.118405,-0.301767,1016.549561
353728,0.023439,-0.097228,-0.077015,1.021282143,-0.072933265,0.253971633,-0.138852,-0.123667,-0.298021,1016.549561
353828,0.012724,-0.090901,-0.090789,1.023052347,-0.075465918,0.247911224,-0.13745,-0.128889,-0.293776,1016.549561
353928,0.003906,-0.086458,-0.104727,1.02894,-0.069678469,0.251648367,-0.135011,-0.132039,-0.291429,1016.549561
354028,-0.006732,-0.077725,-0.122247,1.037434796,-0.065385,0.25822102,-0.129587,-0.13673,-0.289157,1016.549561
354128,-0.012556,-0.069761,-0.138673,1.050114286,-0.062225918,0.269943571,-0.127187,-0.140972,-0.284861,1016.549561
354228,-0.014414,-0.05531,-0.153567,1.062681531,-0.056698367,0.278751531,-0.123746,-0.146106,-0.283115,1016.549561
354328,-0.01732,-0.040549,-0.16874,1.07526551,-0.048614592,0.287646939,-0.116856,-0.151392,-0.279368,1016.549561
354428,-0.018793,0.001031,-0.191747,1.110327755,-0.036640408,0.286007755,-0.108929,-0.155102,-0.277544,1016.549561
354528,-0.033893,0.055903,-0.215894,1.154689184,-0.025346429,0.266473776,-0.101514,-0.160821,-0.275322,1016.549561
354628,-0.039872,0.072537,-0.22618,1.172558878,-0.016451122,0.222146224,-0.089141,-0.169657,-0.272252,1016.549561
354728,-0.040619,0.034538,-0.219244,1.155937245,-0.038459898,0.164525918,-0.078795,-0.177064,-0.267107,1016.549561
354828,-0.001522,-0.007945,-0.208093,1.157899694,-0.078032041,0.118389082,-0.068414,-0.18537,-0.264011,1016.549561
354928,0.094255,-0.033972,-0.210629,1.17563051,-0.121123367,0.071393061,-0.056095,-0.198312,-0.258644,1016.549561
355028,0.217654,-0.075761,-0.215634,1.19115398,-0.13124949,0.009566327,-0.046356,-0.209463,-0.248179,1016.549561
355128,0.317966,-0.158753,-0.209732,1.201760714,-0.110230306,-0.061751735,-0.036637,-0.226616,-0.237519,1016.549561
355228,0.382835,-0.23204,-0.188722,1.215013367,-0.072217347,-0.103604082,-0.030029,-0.244534,-0.220388,1016.549561
355328,0.413693,-0.266476,-0.161809,1.216356224,-0.012303265,-0.115666633,-0.026391,-0.262854,-0.204282,1016.549561
355428,0.408146,-0.291332,-0.136091,1.195310918,0.059367959,-0.113189184,-0.028299,-0.281754,-0.184705,1016.549561
355528,0.362287,-0.298537,-0.111371,1.161685,0.124087041,-0.099653469,-0.031663,-0.294579,-0.166323,1016.549561
355628,0.282862,-0.268983,-0.090456,1.131051429,0.178507959,-0.076142347,-0.036595,-0.312531,-0.144697,1016.549561
355728,0.174015,-0.211082,-0.070127,1.087707449,0.217897653,-0.072128367,-0.040369,-0.322641,-0.130687,1016.549561
355828,0.049865,-0.131265,-0.047621,1.044482857,0.239190816,-0.091388673,-0.04718,-0.334318,-0.114254,1016.547302
355928,-0.073297,-0.057324,-0.019372,1.006206531,0.243935816,-0.126267755,-0.050374,-0.340257,-0.104038,1016.547302
356028,-0.186123,-0.019343,0.009563,0.964441224,0.239561224,-0.170818367,-0.055476,-0.345449,-0.098296,1016.547302
356128,-0.277987,-0.030804,0.03466,0.932025,0.239469796,-0.206353061,-0.058515,-0.342557,-0.095146,1016.547302
356228,-0.352271,-0.061418,0.056455,0.922873163,0.246869184,-0.223142959,-0.063957,-0.336917,-0.096368,1016.547302
356328,-0.40174,-0.083414,0.061051,0.938697551,0.245865306,-0.225454592,-0.068279,-0.329485,-0.104011,1016.547302
356428,-0.400194,-0.098971,0.060252,0.971332959,0.220093571,-0.223995204,-0.075045,-0.311977,-0.112645,1016.547302
356528,-0.341788,-0.123785,0.047335,1.002946531,0.183273776,-0.213028776,-0.080294,-0.296912,-0.122906,1016.547302
356628,-0.268723,-0.153406,0.031876,1.028019592,0.14491051,-0.180370714,-0.089546,-0.281333,-0.132143,1016.547302
356728,-0.197668,-0.159784,0.022182,1.053742857,0.100065204,-0.132871939,-0.097766,-0.261712,-0.142675,1016.547302
356828,-0.130424,-0.142285,0.021259,1.062532449,0.061586939,-0.092667449,-0.108473,-0.245017,-0.153861,1016.547302
356928,-0.093747,-0.116243,0.035631,1.052272551,0.03718449,-0.071495714,-0.114789,-0.228136,-0.160022,1016.547302
357028,-0.075521,-0.103832,0.060202,1.030155714,0.018651224,-0.054445,-0.121064,-0.214622,-0.16886,1016.547302
357128,-0.073827,-0.108363,0.086047,0.992736531,0.012417653,-0.033161837,-0.128358,-0.202634,-0.176775,1016.547302
357228,-0.08546,-0.117636,0.111883,0.952067347,0.017917143,-0.009532449,-0.130307,-0.199018,-0.178596,1016.547302
357328,-0.106552,-0.113912,0.137376,0.916496429,0.033380714,0.011654184,-0.13117,-0.191715,-0.184739,1016.547302
357428,-0.133973,-0.091601,0.160531,0.892996531,0.054922959,0.018903571,-0.12907,-0.188492,-0.190084,1016.549011
357528,-0.167963,-0.061992,0.178762,0.87485949,0.075128265,0.02162102,-0.128002,-0.184852,-0.193404,1016.549011
357628,-0.190859,-0.037707,0.189563,0.862349592,0.096537653,0.017944082,-0.123964,-0.186265,-0.196478,1016.549011
357728,-0.200174,-0.008156,0.189079,0.852448878,0.11194602,0.022627857,-0.117399,-0.183162,-0.200822,1016.549011
357828,-0.209201,0.033367,0.177932,0.854877347,0.113082857,0.028972041,-0.11342,-0.186713,-0.200998,1016.549011
357928,-0.198808,0.091626,0.164874,0.85485398,0.111651837,0.029804898,-0.108898,-0.185691,-0.202945,1016.549011
358028,-0.180546,0.103864,0.14726,0.842006327,0.105067449,0.026849184,-0.101863,-0.187626,-0.206543,1016.549011
358128,-0.16757,0.08179,0.131611,0.837446939,0.091359694,0.01727949,-0.099808,-0.189482,-0.210143,1016.549011
358228,-0.14572,0.038801,0.120309,0.844322959,0.075843265,0.022681735,-0.093322,-0.188564,-0.21059,1016.549011
358328,-0.119429,0.04282,0.113906,0.861377857,0.062863776,0.025453776,-0.089782,-0.189969,-0.213664,1016.549011
358428,-0.097683,0.06192,0.107313,0.862096837,0.050664184,0.015282959,-0.089813,-0.191536,-0.212241,1016.549011
358528,-0.08463,0.068012,0.109333,0.859000408,0.046219796,0.010003061,-0.088326,-0.191086,-0.211715,1016.549011
358628,-0.070111,0.049553,0.114313,0.864517653,0.049148469,0.019731429,-0.086219,-0.188835,-0.217611,1016.549011
358728,-0.059329,0.008556,0.117885,0.872096224,0.056547653,0.030788265,-0.084365,-0.193689,-0.210841,1016.549011
358828,-0.058993,-0.052689,0.121938,0.878376735,0.065427143,0.041952857,-0.087832,-0.193087,-0.211817,1016.549011
358928,-0.061933,-0.13637,0.122484,0.886284796,0.074243163,0.049740918,-0.088321,-0.193055,-0.212317,1016.549011
359028,-0.054175,-0.1938,0.118489,0.902291939,0.076468163,0.068410204,-0.088345,-0.191134,-0.210716,1016.549011
359128,-0.035051,-0.192735,0.108803,0.913382245,0.082289898,0.088521837,-0.089303,-0.190026,-0.212664,1016.549011
359228,-0.007343,-0.145861,0.092741,0.907976224,0.077642245,0.098176735,-0.090785,-0.188483,-0.213088,1016.549011
359328,0.022822,-0.09212,0.079755,0.894155612,0.067957245,0.102209898,-0.087754,-0.185445,-0.214934,1016.549011
359428,0.047812,-0.048189,0.07888,0.875200714,0.053728367,0.109118571,-0.087751,-0.18395,-0.214858,1016.549011
359528,0.072611,-0.017126,0.079832,0.861996327,0.048481633,0.114814082,-0.080719,-0.182421,-0.217778,1016.549011
359628,0.105807,0.008618,0.082594,0.863413163,0.044715102,0.110763163,-0.078562,-0.178556,-0.226097,1016.549011
359728,0.14318,0.029998,0.088001,0.877815306,0.045284286,0.104524592,-0.07156,-0.178594,-0.227594,1016.549011
359828,0.182525,0.045857,0.090921,0.894557857,0.046172755,0.093018878,-0.06641,-0.172285,-0.235784,1016.549011
359928,0.216226,0.059825,0.092983,0.905896224,0.04431,0.085905714,-0.059314,-0.171585,-0.242254,1016.549011
360028,0.242353,0.065182,0.100127,0.913747857,0.036400306,0.084126837,-0.051192,-0.169333,-0.250147,1016.549011
360128,0.255721,0.063458,0.110076,0.925037551,0.025242143,0.082194796,-0.044078,-0.163626,-0.256862,1016.549011
360228,0.256737,0.052674,0.133897,0.949765306,0.028654898,0.094886429,-0.038525,-0.16352,-0.260859,1016.549011
360328,0.227858,0.064283,0.157165,0.985746327,0.045058469,0.09855,-0.032473,-0.163422,-0.264856,1016.549011
360428,0.172439,0.079414,0.181673,1.01039898,0.066737857,0.096333367,-0.029874,-0.159709,-0.270175,1016.549011
360528,0.104721,0.080061,0.209763,1.031345918,0.094603878,0.097782449,-0.027317,-0.159082,-0.273648,1016.549011
360628,0.039958,0.089738,0.232078,1.056776429,0.123125612,0.110482551,-0.024729,-0.156389,-0.278518,1016.549011
360728,-0.009219,0.13199,0.245574,1.086818776,0.142143061,0.134084898,-0.025721,-0.153883,-0.278391,1016.549011
360828,-0.042487,0.1936,0.248865,1.11268449,0.141107245,0.151682551,-0.022738,-0.152459,-0.277814,1016.549011
360928,-0.04422,0.248643,0.247797,1.136566224,0.120174898,0.168689286,-0.019127,-0.150209,-0.284209,1016.549011
361028,-0.019673,0.304776,0.248149,1.178440918,0.083434592,0.206913061,-0.015577,-0.151092,-0.287757,1016.549011
361128,0.032651,0.369805,0.247478,1.225065612,0.042522857,0.253119286,-0.008015,-0.147506,-0.292075,1016.549011
361228,0.102002,0.458875,0.243206,1.272073776,0.00196102,0.291130918,-0.002051,-0.150116,-0.291701,1016.549011
361328,0.176909,0.592676,0.241069,1.324417245,-0.043425714,0.312633061,0.011356,-0.158374,-0.290604,1016.549011
361428,0.242754,0.752396,0.256472,1.380521939,-0.082954184,0.304607551,0.026633,-0.167972,-0.283059,1016.549011
361528,0.295092,0.906803,0.284463,1.425762857,-0.096325816,0.246524694,0.043819,-0.182279,-0.271744,1016.549011
361628,0.321269,0.975398,0.315097,1.446656429,-0.089483367,0.174607041,0.056959,-0.200155,-0.25761,1016.549011
361728,0.302047,0.982412,0.337055,1.466988571,-0.03623602,0.109901224,0.065453,-0.221358,-0.235132,1016.549011
361828,0.255026,0.99302,0.341732,1.493139388,0.011370408,0.05073449,0.06986,-0.23631,-0.206328,1016.549011
361928,0.195692,0.941344,0.321519,1.432272245,0.067780714,-0.057802959,0.06328,-0.252157,-0.176079,1016.549011
362028,0.151061,0.743033,0.262316,1.301498163,0.136437959,-0.24006398,0.050834,-0.262662,-0.151075,1016.549011
362128,0.099879,0.423663,0.166626,1.168294082,0.13591449,-0.372664898,0.028596,-0.265126,-0.134191,1016.549011
362228,0.017967,0.098937,0.08052,1.072119694,0.051423571,-0.416068265,0.012478,-0.26087,-0.123971,1016.549011
362328,-0.06301,-0.210373,0.044307,0.998415,-0.031006939,-0.406377959,-0.007449,-0.251634,-0.12252,1016.549011
362428,-0.112029,-0.468905,0.039724,0.950091122,-0.092137653,-0.320426224,-0.031769,-0.238124,-0.125365,1016.549011
362528,-0.086062,-0.615223,0.042758,0.945887551,-0.142746224,-0.187168878,-0.045079,-0.222177,-0.13058,1016.549011
362628,0.049237,-0.672678,0.03005,0.965258878,-0.200719286,-0.062970204,-0.052397,-0.208767,-0.136919,1016.549011
362728,0.248206,-0.625003,0.003744,1.00475102,-0.244729286,0.028519796,-0.057708,-0.196836,-0.144333,1016.549011
362828,0.400845,-0.407138,-0.01508,1.04311,-0.287882143,0.078277449,-0.060069,-0.186543,-0.149824,1016.549011
362928,0.481836,-0.115246,-0.02966,1.036434082,-0.283668061,0.057745612,-0.059443,-0.18275,-0.156143,1016.549011
363028,0.513278,0.099137,-0.044473,0.992070204,-0.228415,-0.002629388,-0.053859,-0.175621,-0.160784,1016.549011
363128,0.526345,0.175312,-0.059979,0.947612347,-0.149826327,-0.054127551,-0.050298,-0.170525,-0.164027,1016.549011
363228,0.51261,0.158559,-0.065572,0.92530051,-0.069404082,-0.070959388,-0.044679,-0.165293,-0.170769,1016.549011
363328,0.466779,0.135289,-0.060893,0.929466735,0.001188673,-0.073551837,-0.042581,-0.158108,-0.175411,1016.549011
363428,0.381517,0.144748,-0.050875,0.925027449,0.068777857,-0.05210949,-0.038939,-0.148834,-0.182449,1016.549011
363528,0.265177,0.109728,-0.055113,0.89948,0.098570714,-0.051940102,-0.038754,-0.138436,-0.190938,1016.549011
363628,0.139515,0.042102,-0.073153,0.883758776,0.107753776,-0.051577755,-0.03952,-0.12394,-0.201222,1016.549011
363728,0.040833,-0.017268,-0.09411,0.882295714,0.086891327,-0.023199796,-0.040304,-0.113952,-0.211236,1016.549011
363828,-0.018254,-0.050025,-0.120352,0.877021122,0.043148061,-0.013139898,-0.044984,-0.095737,-0.224843,1016.549011
363928,-0.049656,-0.084829,-0.135776,0.860564388,-0.013173776,-0.006500918,-0.050215,-0.081122,-0.236128,1016.549011
364028,-0.057421,-0.124069,-0.143611,0.849073673,-0.058799286,0.010652857,-0.052948,-0.06702,-0.247939,1016.549011
364128,-0.042876,-0.149569,-0.149083,0.834849898,-0.09569,0.032143776,-0.058186,-0.051432,-0.258673,1016.549011
364228,-0.009074,-0.17067,-0.155622,0.828323776,-0.124676327,0.044898469,-0.057923,-0.038848,-0.271059,1016.549011
364328,0.036453,-0.177011,-0.161069,0.822284796,-0.13913102,0.051620306,-0.061235,-0.029416,-0.279099,1016.549011
364428,0.080486,-0.156315,-0.166008,0.821708367,-0.148852245,0.061186633,-0.06351,-0.022369,-0.289766,1016.549011
364528,0.102013,-0.111895,-0.160822,0.816932653,-0.145621327,0.066897755,-0.062893,-0.013144,-0.294806,1016.549011
364628,0.102423,-0.067333,-0.150726,0.803730918,-0.13080449,0.060059388,-0.066739,-0.007761,-0.30155,1016.549011
364728,0.084602,-0.032382,-0.141221,0.782825918,-0.10693051,0.045295408,-0.071036,-0.00225,-0.310794,1016.549011
364828,0.060644,-0.02735,-0.134727,0.766595102,-0.074922551,0.031611224,-0.069932,0.001486,-0.316114,1016.549011
364928,0.040892,-0.061362,-0.135461,0.74981898,-0.05042949,0.02199102,-0.068706,0.010494,-0.327177,1016.549011
365028,0.01622,-0.129662,-0.140508,0.747015612,-0.027996939,0.018216837,-0.065024,0.016401,-0.336893,1016.549011
365128,-0.008732,-0.207861,-0.150577,0.759880918,-0.017064184,0.02734898,-0.063784,0.022966,-0.349083,1016.549011
365228,-0.027291,-0.258073,-0.159432,0.789154184,-0.022921939,0.051580918,-0.064998,0.034625,-0.362519,1016.549011
365328,-0.028949,-0.289415,-0.162294,0.817157143,-0.044403776,0.067798673,-0.064222,0.044758,-0.37603,1016.549011
365428,-0.023735,-0.316062,-0.156943,0.845561837,-0.072779082,0.080141531,-0.067937,0.055934,-0.388993,1016.549011
365528,-0.022418,-0.332567,-0.149031,0.877322857,-0.10084051,0.088019694,-0.069685,0.068501,-0.400379,1016.544983
365628,-0.017062,-0.33878,-0.142515,0.901813776,-0.118330714,0.09714051,-0.073994,0.07795,-0.40842,1016.544983
365728,-0.015055,-0.339544,-0.135077,0.911391327,-0.12662949,0.110629184,-0.080793,0.087936,-0.416436,1016.544983
365828,-0.017119,-0.328569,-0.129094,0.906077041,-0.131993776,0.121059184,-0.086126,0.091872,-0.423757,1016.544983
365928,-0.014764,-0.307333,-0.127812,0.888583163,-0.131674694,0.128693367,-0.09348,0.100726,-0.428825,1016.544983
366028,-0.007018,-0.280997,-0.129829,0.872683265,-0.125167143,0.135218776,-0.096443,0.104807,-0.429623,1016.544983
366128,0.016317,-0.24332,-0.139653,0.870805102,-0.116952959,0.142509388,-0.099767,0.107763,-0.437993,1016.544983
366228,0.04353,-0.19221,-0.149822,0.881701939,-0.10896449,0.146036327,-0.106149,0.114061,-0.442189,1016.544983
366328,0.064672,-0.138754,-0.15973,0.899519796,-0.108423163,0.133577041,-0.105522,0.118352,-0.448483,1016.544983
366428,0.071931,-0.087125,-0.165284,0.92959102,-0.112764388,0.132500102,-0.105359,0.121751,-0.456827,1016.544983
366528,0.083543,-0.050372,-0.17149,0.962205204,-0.11395398,0.12976551,-0.11276,0.125027,-0.460176,1016.544983
366628,0.100014,-0.031191,-0.176279,0.999084592,-0.110861633,0.130327041,-0.114615,0.129382,-0.46697,1016.544983
366728,0.124017,-0.022234,-0.181768,1.037175918,-0.096358776,0.134641633,-0.116014,0.131141,-0.471893,1016.544983
366828,0.153638,-0.009378,-0.189663,1.07545,-0.081350102,0.137858776,-0.116433,0.133833,-0.475764,1016.544983
366928,0.191311,0.011024,-0.206592,1.097587551,-0.079168265,0.127306531,-0.1209,0.132457,-0.476841,1016.544983
367028,0.241164,0.036312,-0.235523,1.1245,-0.092692755,0.108416837,-0.119847,0.133085,-0.479815,1016.544983
367128,0.282307,0.090843,-0.271014,1.178187857,-0.111177245,0.096183367,-0.122396,0.126527,-0.477647,1016.544983
367228,0.315348,0.176074,-0.297899,1.246470408,-0.125226939,0.106792857,-0.12287,0.124116,-0.479273,1016.544983
367328,0.310209,0.25413,-0.30052,1.331018878,-0.110285816,0.152341429,-0.121,0.117816,-0.47358,1016.544983
367428,0.249856,0.309044,-0.282148,1.431341122,-0.06876949,0.250319694,-0.114588,0.108127,-0.471561,1016.544983
367528,0.151258,0.353381,-0.25052,1.510110102,0.001968878,0.357504796,-0.11128,0.095704,-0.463673,1016.544983
367628,0.051051,0.446585,-0.228061,1.56017051,0.100211939,0.418619796,-0.104531,0.084601,-0.453209,1016.544983
367728,-0.055288,0.616666,-0.237843,1.555306327,0.184609898,0.404598776,-0.091792,0.068967,-0.443971,1016.544983
367828,-0.131623,0.776948,-0.282208,1.491337857,0.201809796,0.287644286,-0.078127,0.055616,-0.430607,1016.544983
367928,-0.162641,0.806243,-0.332163,1.434746633,0.161882143,0.117533163,-0.065653,0.037813,-0.407451,1016.544983
368028,-0.156145,0.668372,-0.367062,1.412433776,0.099742347,-0.063045102,-0.060596,0.024235,-0.386593,1016.544983
368128,-0.112955,0.390606,-0.3843,1.380276327,0.03291,-0.212163163,-0.062067,0.007151,-0.363415,1016.544983
368228,-0.051351,0.115307,-0.351832,1.324987857,-0.023673571,-0.27846551,-0.06998,-0.00627,-0.341562,1016.544983
368328,-0.002294,-0.060781,-0.273945,1.18353602,-0.053878265,-0.305966122,-0.082462,-0.021331,-0.315287,1016.544983
368428,0.006464,-0.217377,-0.190183,0.970851327,-0.034303163,-0.327337449,-0.097385,-0.03424,-0.291411,1016.544983
368528,-0.027867,-0.410663,-0.136255,0.815779694,0.011402857,-0.328262245,-0.108167,-0.047798,-0.276081,1016.544983
368628,-0.063021,-0.562122,-0.079123,0.744236735,0.050151429,-0.273393571,-0.112382,-0.057257,-0.265044,1016.544983
368728,-0.067498,-0.631785,-0.056404,0.736403265,0.141879694,-0.198543367,-0.117015,-0.063525,-0.257853,1016.544983
368828,-0.102196,-0.616136,-0.062537,0.779594898,0.211608878,-0.09253398,-0.113049,-0.069093,-0.257631,1016.544983
368928,-0.170494,-0.452735,-0.048223,0.865881633,0.256594082,0.015730612,-0.110065,-0.071632,-0.257757,1016.544983
369028,-0.241579,-0.217472,-0.011713,0.968079796,0.272969796,0.039420204,-0.105,-0.066536,-0.2615,1016.544983
369128,-0.274294,-0.042963,0.033238,1.02869102,0.29211898,-0.036439388,-0.105964,-0.063957,-0.262873,1016.544983
369228,-0.27882,0.002575,0.060595,1.058908776,0.287478571,-0.133326122,-0.10545,-0.059955,-0.26317,1016.544983
369328,-0.30081,-0.010227,0.089529,1.090891939,0.234115,-0.186265408,-0.114873,-0.052259,-0.264291,1016.544983
369428,-0.354352,-0.059036,0.107639,1.084814796,0.159842449,-0.19108602,-0.126308,-0.04012,-0.263685,1016.544983
369528,-0.397713,-0.100629,0.10352,1.061970612,0.092484082,-0.14123898,-0.138257,-0.030986,-0.262731,1016.544983
369628,-0.374248,-0.119692,0.076597,1.038300714,0.038318571,-0.088127449,-0.154199,-0.021813,-0.261279,1016.544983
369728,-0.284298,-0.17357,0.042167,1.005792551,0.004904082,-0.094179388,-0.166177,-0.013748,-0.258878,1016.544983
369828,-0.171596,-0.273498,0.015785,0.976822449,-0.002268163,-0.106877041,-0.178156,-0.006181,-0.2565,1016.544983
369928,-0.059598,-0.347146,0.004712,0.955895816,-0.002829082,-0.087786429,-0.18819,-0.004721,-0.252429,1016.544983
370028,0.043081,-0.370698,0.005938,0.932752755,-0.007701735,-0.050427959,-0.200173,-0.004604,-0.250934,1016.544983
370128,0.112016,-0.355919,0.01811,0.91270102,-0.011145408,-0.01519398,-0.208231,-0.001729,-0.245785,1016.544983
370228,0.138554,-0.329526,0.045637,0.895004286,-0.011266429,0.012992653,-0.214237,-0.002205,-0.244313,1016.544983
370328,0.132709,-0.304401,0.084134,0.872254694,0.001525306,0.033204286,-0.215813,-0.00636,-0.240519,1016.544983
370428,0.104387,-0.292389,0.127845,0.846689694,0.024053776,0.044848878,-0.21293,-0.008664,-0.235121,1016.544983
370528,0.064494,-0.285245,0.171205,0.825299388,0.05269051,0.056526939,-0.211522,-0.015358,-0.231453,1016.544983
370628,0.023288,-0.252812,0.198521,0.807117551,0.082425306,0.062264898,-0.206589,-0.02201,-0.229782,1016.544983
370728,-0.01385,-0.209408,0.207363,0.782159592,0.104739388,0.050400408,-0.198648,-0.027665,-0.229059,1016.544983
370828,-0.033722,-0.19271,0.203176,0.757461633,0.109319184,0.017255306,-0.193769,-0.032967,-0.224314,1016.544983
370928,-0.034669,-0.218972,0.187433,0.744114898,0.104997551,-0.011177857,-0.18485,-0.039185,-0.222617,1016.544983
371028,-0.016342,-0.288969,0.163586,0.746617857,0.096686122,-0.031843163,-0.17536,-0.040259,-0.224164,1016.544983
371128,0.000647,-0.356028,0.139543,0.771036429,0.078801224,-0.023478163,-0.172396,-0.043843,-0.223341,1016.544983
371228,0.02265,-0.386289,0.116337,0.804059082,0.066570816,-0.003399796,-0.165346,-0.04822,-0.228066,1016.544983
371328,0.049035,-0.391467,0.083965,0.831742041,0.077404694,-6.32E-05,-0.163373,-0.0483,-0.227066,1016.544983
371428,0.070622,-0.371654,0.03715,0.838355918,0.058188673,-0.004480816,-0.160841,-0.051208,-0.229717,1016.544983
371528,0.094286,-0.303354,0.057988,0.823218367,0.038543163,0.002820306,-0.159872,-0.051297,-0.228217,1016.544983
371628,0.110804,-0.250055,0.080592,0.823933878,0.058121429,0.011597449,-0.162396,-0.054319,-0.226871,1016.544983
371728,0.125732,-0.225998,0.0772,0.835187755,0.07779051,0.015399694,-0.161923,-0.052904,-0.225295,1016.544983
371828,0.131242,-0.205358,0.07032,0.844661735,0.097701633,0.03282602,-0.163435,-0.05243,-0.22427,1016.544983
371928,0.128647,-0.186666,0.06418,0.846853878,0.122777755,0.055074388,-0.165939,-0.054408,-0.223873,1016.544983
372028,0.129497,-0.152978,0.058072,0.852040204,0.136223776,0.072156531,-0.165419,-0.052375,-0.224771,1016.542786
372128,0.14251,-0.101231,0.047074,0.852229694,0.12812602,0.087835102,-0.161885,-0.05231,-0.227268,1016.542786
372228,0.16936,-0.042384,0.034265,0.849849592,0.103178469,0.093887755,-0.157776,-0.050067,-0.233663,1016.542786
372328,0.187211,0.014678,0.025208,0.855412143,0.072502653,0.094672653,-0.1532,-0.050396,-0.238685,1016.542786
372428,0.19049,0.059559,0.020895,0.884065612,0.052587347,0.092921531,-0.146638,-0.048289,-0.24308,1016.542786
372528,0.174556,0.106938,0.030094,0.920448367,0.055347959,0.090899388,-0.143474,-0.048875,-0.252626,1016.542786
372628,0.156398,0.137682,0.041459,0.937839694,0.065350306,0.094043571,-0.134315,-0.050504,-0.263221,1016.542786
372728,0.145073,0.151129,0.05811,0.95021398,0.077260612,0.101337857,-0.126746,-0.047891,-0.26809,1016.542786
372828,0.124864,0.154198,0.082403,0.979889286,0.085832653,0.105728163,-0.120114,-0.048581,-0.276635,1016.542786
372928,0.094544,0.157226,0.108446,1.015070102,0.093325306,0.100025816,-0.111969,-0.049246,-0.28618,1016.542786
373028,0.048782,0.154907,0.13351,1.055817653,0.106081735,0.077606939,-0.105355,-0.049486,-0.2937,1016.542786
373128,-0.01249,0.141823,0.168686,1.100935714,0.123121122,0.054761633,-0.099759,-0.046793,-0.299569,1016.542786
373228,-0.086918,0.103257,0.204053,1.145086531,0.154613469,0.038201122,-0.093672,-0.047595,-0.305616,1016.542786
373328,-0.162287,0.060769,0.232047,1.187836224,0.183634592,0.047795408,-0.092054,-0.045811,-0.312036,1016.542786
373428,-0.209962,0.044167,0.249223,1.226508163,0.191447959,0.088323469,-0.089504,-0.043713,-0.314933,1016.542786
373528,-0.207787,0.041529,0.244883,1.271803878,0.173102041,0.139759388,-0.082966,-0.045142,-0.318506,1016.542786
373628,-0.154113,0.082467,0.228274,1.328501531,0.135453571,0.222715,-0.082956,-0.044619,-0.31898,1016.546204
373728,-0.061765,0.228469,0.194721,1.399032857,0.08112398,0.323522245,-0.074977,-0.050178,-0.320256,1016.546204
373828,0.048656,0.468205,0.166527,1.47372398,-0.00205398,0.342544184,-0.062591,-0.051541,-0.316805,1016.546204
373928,0.128875,0.697782,0.169094,1.523830408,-0.081636633,0.243219388,-0.050864,-0.060256,-0.305712,1016.546204
374028,0.147546,0.848418,0.200699,1.521222143,-0.080465102,0.087841122,-0.04318,-0.070049,-0.291673,1016.546204
374128,0.120605,0.905798,0.227201,1.504252245,-0.059582041,-0.037247041,-0.041727,-0.08685,-0.26497,1016.546204
374228,0.089759,0.890781,0.257062,1.483458673,-0.01973949,-0.143211837,-0.052246,-0.097057,-0.236442,1016.546204
374328,0.045735,0.790111,0.28523,1.420357347,0.062941327,-0.241227857,-0.071367,-0.109958,-0.201046,1016.546204
374428,-0.016527,0.643008,0.287949,1.31465949,0.135211122,-0.348276429,-0.105263,-0.116732,-0.173872,1016.546204
374528,-0.064998,0.463117,0.226303,1.158087857,0.174718061,-0.435647449,-0.144512,-0.114162,-0.15224,1016.546204
374628,-0.122933,0.216282,0.110049,1.011493163,0.112732551,-0.46414449,-0.181551,-0.109574,-0.142027,1016.546204
374728,-0.136146,-0.079327,0.032221,0.925736122,0.012110918,-0.448401735,-0.211995,-0.100317,-0.13758,1016.546204
374828,-0.076195,-0.327311,0.001298,0.898392041,-0.065081735,-0.370268469,-0.235275,-0.088695,-0.143026,1016.546204
374928,0.074233,-0.434234,-0.02619,0.908812041,-0.132641531,-0.26619898,-0.244474,-0.074965,-0.155364,1016.546204
375028,0.319845,-0.369263,-0.058571,0.960655918,-0.239587041,-0.152618061,-0.252289,-0.060551,-0.161652,1016.546204
375128,0.558807,-0.2052,-0.088525,1.032346429,-0.34025551,-0.094142347,-0.251631,-0.053696,-0.169319,1016.546204
375228,0.675893,-0.055821,-0.078214,1.119754286,-0.379631735,-0.095087653,-0.254465,-0.044818,-0.176385,1016.547974
375328,0.67074,0.022768,-0.037,1.154956939,-0.311980408,-0.140336429,-0.25584,-0.040519,-0.18218,1016.547974
375428,0.639266,0.043616,-0.003438,1.144683571,-0.179684694,-0.155676939,-0.260302,-0.038905,-0.183105,1016.547974
375528,0.587506,0.038988,0.023817,1.11848551,-0.057273776,-0.153301224,-0.266237,-0.035725,-0.184953,1016.547974
375628,0.497275,0.0359,0.040246,1.080588776,0.051125102,-0.130647653,-0.276222,-0.038106,-0.184084,1016.547974
375728,0.382587,0.05093,0.033523,1.027254082,0.15050398,-0.09514602,-0.282642,-0.032901,-0.186331,1016.547974
375828,0.261682,0.065221,-0.001599,0.961337857,0.215338163,-0.072805204,-0.288489,-0.027012,-0.192551,1016.547974
375928,0.153537,0.051642,-0.058179,0.889869694,0.229062551,-0.070843878,-0.290345,-0.023156,-0.199371,1016.547974
376028,0.076748,0.01546,-0.12022,0.834067959,0.198206837,-0.068560408,-0.291641,-0.015675,-0.209012,1016.547974
376128,0.002422,-0.021374,-0.163642,0.806039184,0.137498469,-0.053427857,-0.290365,-0.009512,-0.223226,1016.547974
376228,-0.070033,-0.036779,-0.181894,0.79674449,0.061261429,-0.013268673,-0.284607,0.00104,-0.236711,1016.547974
376328,-0.120315,-0.013525,-0.181775,0.798171429,-0.005413163,0.022159184,-0.281913,0.00599,-0.246977,1016.547974
376428,-0.138627,0.020238,-0.16735,0.792834796,-0.050343163,0.035414898,-0.277647,0.012604,-0.261166,1016.547974
376528,-0.129871,0.052585,-0.150773,0.784824592,-0.085675612,0.034502245,-0.275511,0.020383,-0.267781,1016.547974
376628,-0.10225,0.073955,-0.139521,0.764752959,-0.102366122,0.021642347,-0.273804,0.025373,-0.278548,1016.547974
376728,-0.073625,0.07257,-0.131663,0.739125612,-0.113861633,0.014325102,-0.271198,0.027616,-0.284443,1016.547974
376828,-0.061845,0.071505,-0.129316,0.72842551,-0.10740449,0.024226531,-0.269014,0.031055,-0.294286,1016.547974
376928,-0.051735,0.069544,-0.131601,0.723280816,-0.083938469,0.03618102,-0.267348,0.033956,-0.303155,1016.547974
377028,-0.053313,0.059442,-0.13841,0.724085714,-0.061081122,0.028448367,-0.262223,0.036231,-0.310549,1016.547974
377128,-0.067953,0.030902,-0.141452,0.728288571,-0.040169184,0.015660408,-0.258988,0.039301,-0.323416,1016.547974
377228,-0.085299,-0.00695,-0.142025,0.736990612,-0.019340816,0.012887449,-0.256778,0.041816,-0.334809,1016.547974
377328,-0.100476,-0.034428,-0.140419,0.749484898,-0.005386122,0.016771531,-0.254588,0.048743,-0.344475,1016.547974
377428,-0.106955,-0.053036,-0.138979,0.76128102,0.002838776,0.025327857,-0.255827,0.056866,-0.357089,1016.547974
377528,-0.111071,-0.073643,-0.139433,0.772262755,0.001945714,0.036086327,-0.251651,0.059776,-0.366957,1016.547974
377628,-0.11995,-0.09327,-0.134677,0.789419082,-0.009541939,0.048010306,-0.257938,0.067312,-0.376099,1016.547974
377728,-0.129235,-0.110331,-0.12726,0.805692959,-0.027486429,0.06569449,-0.256758,0.071241,-0.385417,1016.547974
377828,-0.139103,-0.113959,-0.111356,0.826151837,-0.045288061,0.083976837,-0.257558,0.077717,-0.395109,1016.547974
377928,-0.141062,-0.100691,-0.097818,0.852179286,-0.063634082,0.091323776,-0.261352,0.080753,-0.404979,1016.547974
378028,-0.146387,-0.09093,-0.087678,0.883457245,-0.083554388,0.092047755,-0.263203,0.087101,-0.411672,1016.547974
378128,-0.137851,-0.09691,-0.084442,0.918052551,-0.097614694,0.101208571,-0.263541,0.088514,-0.420118,1016.547974
378228,-0.119947,-0.100214,-0.086375,0.961566122,-0.112180918,0.130368163,-0.268873,0.093447,-0.427389,1016.547974
378328,-0.093579,-0.088193,-0.085017,1.002439082,-0.128700918,0.158713265,-0.270768,0.09621,-0.43226,1016.547974
378428,-0.068312,-0.062437,-0.077988,1.026587755,-0.136337245,0.167816531,-0.274185,0.098925,-0.435633,1016.547974
378528,-0.054555,-0.016038,-0.072068,1.040306531,-0.134179796,0.168058673,-0.274063,0.094778,-0.442859,1016.547302
378628,-0.044585,0.040154,-0.071824,1.03772898,-0.12825398,0.15766,-0.27503,0.095863,-0.444308,1016.547302
378728,-0.025068,0.081806,-0.079762,1.037064082,-0.116737959,0.140050408,-0.275034,0.093372,-0.444435,1016.547302
378828,0.005154,0.105832,-0.091701,1.035065918,-0.102699796,0.120224898,-0.273031,0.088904,-0.445662,1016.547302
378928,0.040675,0.110671,-0.106718,1.03728602,-0.082827653,0.109658265,-0.269974,0.085562,-0.449838,1016.547302
379028,0.073577,0.114298,-0.124895,1.055087143,-0.062829388,0.100775408,-0.269484,0.075613,-0.450845,1016.547302
379128,0.106834,0.120908,-0.141374,1.071031837,-0.041978776,0.095048673,-0.268,0.069611,-0.45115,1016.547302
379228,0.155593,0.13354,-0.164271,1.082768571,-0.025226837,0.078336224,-0.261026,0.059584,-0.452655,1016.547302
379328,0.223854,0.149858,-0.201763,1.107005408,-0.021414082,0.050796939,-0.257576,0.053976,-0.451434,1016.547302
379428,0.303316,0.169163,-0.226315,1.157176429,-0.040466327,0.047079388,-0.254632,0.044888,-0.450391,1016.547302
379528,0.347866,0.218423,-0.230947,1.249717959,-0.060049286,0.129042245,-0.247715,0.03372,-0.448949,1016.547302
379628,0.351551,0.287486,-0.236421,1.373937755,-0.067670816,0.282753673,-0.243347,0.020952,-0.444585,1016.547302
379728,0.308193,0.382391,-0.219426,1.480185816,-0.042938571,0.420628367,-0.231067,0.006917,-0.437269,1016.547302
379828,0.243762,0.564928,-0.180361,1.52623102,0.030990306,0.500269694,-0.214817,-0.010693,-0.429631,1016.547302
379928,0.179977,0.83002,-0.164843,1.510868163,0.15114398,0.494442551,-0.195655,-0.034996,-0.418824,1016.547302
380028,0.11824,1.098946,-0.218551,1.436477245,0.218078776,0.387126531,-0.172567,-0.060503,-0.405067,1016.547302
380128,0.060095,1.258577,-0.304312,1.362512041,0.184133367,0.239606531,-0.148052,-0.083237,-0.38716,1016.549011
380228,0.030288,1.369118,-0.344545,1.332633265,0.134063163,0.083434898,-0.124295,-0.1106,-0.35596,1016.549011
380328,0.028519,1.372971,-0.308009,1.295946837,0.074125306,-0.104876531,-0.111491,-0.140255,-0.325391,1016.549011
380428,0.073608,1.145147,-0.203094,1.20936398,0.01999602,-0.323068878,-0.114728,-0.168926,-0.289279,1016.549011
380528,0.105478,0.711611,-0.074827,1.079506429,-0.007315306,-0.469131735,-0.12887,-0.188359,-0.254711,1016.549011
380628,0.103564,0.326051,0.016157,0.937661224,0.02069398,-0.446667959,-0.149462,-0.209111,-0.221721,1016.549011
380728,0.081071,0.037692,0.06623,0.840213878,0.07180602,-0.377167653,-0.169361,-0.224407,-0.198474,1016.549011
380828,0.065239,-0.2322,0.078789,0.802536735,0.127278878,-0.342270408,-0.181147,-0.23202,-0.181839,1016.549011
380928,0.042303,-0.474189,0.064552,0.803793673,0.204427653,-0.28331551,-0.18933,-0.242363,-0.171854,1016.549011
381028,-0.002426,-0.631309,0.055104,0.857109694,0.285525,-0.164965,-0.185914,-0.245577,-0.168507,1016.549011
381128,-0.076516,-0.625569,0.065439,0.969844286,0.343725204,-0.010473367,-0.180853,-0.242474,-0.172351,1016.549011
381228,-0.153519,-0.485108,0.09015,1.114022449,0.371087041,0.065299286,-0.173291,-0.238888,-0.176669,1016.549011
381328,-0.237638,-0.284792,0.121623,1.213893878,0.365272143,0.042149592,-0.170644,-0.2291,-0.183683,1016.549011
381428,-0.338676,-0.118537,0.130808,1.231341531,0.32182398,-0.01677949,-0.16942,-0.215632,-0.194018,1016.549011
381528,-0.451949,-0.014847,0.127445,1.216472143,0.235152449,-0.058727755,-0.17473,-0.203701,-0.201432,1016.549011
381628,-0.566036,0.051521,0.134297,1.181370816,0.134462653,-0.066204388,-0.187457,-0.187046,-0.211119,1016.549011
381728,-0.648989,0.08325,0.148561,1.129084286,0.036474388,-0.067261122,-0.199765,-0.173083,-0.216935,1016.550781
381828,-0.684793,0.08209,0.159245,1.05721949,-0.025634694,-0.064472449,-0.212071,-0.157625,-0.222674,1016.550781
381928,-0.633932,0.050598,0.16635,0.986982449,-0.041136633,-0.044862551,-0.224833,-0.145029,-0.231065,1016.550781
382028,-0.512563,0.011394,0.154407,0.921882041,-0.027193163,-0.011914388,-0.234162,-0.131138,-0.236379,1016.550781
382128,-0.370863,-0.05188,0.125934,0.878179286,0.003272449,0.020333469,-0.241557,-0.124374,-0.23955,1016.550781
382228,-0.264571,-0.116488,0.106201,0.853752347,0.021775612,0.051136224,-0.245395,-0.115005,-0.246091,1016.550781
382328,-0.202462,-0.173211,0.097258,0.838682551,0.030331837,0.074519694,-0.247817,-0.107348,-0.24871,1016.550781
382428,-0.176013,-0.194642,0.099464,0.83376051,0.034498571,0.092728061,-0.247774,-0.103764,-0.250531,1016.550781
382528,-0.167866,-0.186748,0.113063,0.816807347,0.038970408,0.103917959,-0.246669,-0.100027,-0.255851,1016.550781
382628,-0.167038,-0.153334,0.127409,0.792146939,0.03558102,0.104615816,-0.245138,-0.094996,-0.257096,1016.550781
382728,-0.162934,-0.100851,0.144929,0.762965102,0.028748776,0.108890714,-0.244119,-0.092971,-0.257993,1016.550781
382828,-0.160465,-0.046375,0.165867,0.728073061,0.029745408,0.108931327,-0.239578,-0.091901,-0.26094,1016.550781
382928,-0.15806,0.007517,0.186132,0.704559388,0.033826633,0.099587245,-0.234092,-0.093459,-0.261514,1016.550781
383028,-0.152904,0.037842,0.209885,0.699085204,0.03423102,0.080701122,-0.225533,-0.094348,-0.266561,1016.550781
383128,-0.146074,0.028154,0.227053,0.703365408,0.031288878,0.052553673,-0.219011,-0.094331,-0.269058,1016.550781
383228,-0.137773,-0.023612,0.239482,0.722977755,0.021174082,0.028097653,-0.209437,-0.095189,-0.275103,1016.550781
383328,-0.115095,-0.090341,0.243102,0.756725816,0.006332551,0.030413367,-0.204377,-0.093082,-0.278998,1016.549011
383428,-0.082714,-0.151182,0.243745,0.788664694,-0.004843571,0.041392959,-0.199796,-0.095379,-0.284622,1016.549011
383528,-0.044618,-0.209408,0.241762,0.819544082,-0.006798469,0.051471633,-0.194221,-0.093233,-0.289516,1016.549011
383628,-0.010237,-0.252576,0.234313,0.846796429,-0.002165612,0.066150612,-0.195684,-0.091642,-0.29094,1016.549011
383728,0.016302,-0.264102,0.217387,0.862866837,0.014394082,0.090192653,-0.195104,-0.09243,-0.295489,1016.549011
383828,0.05306,-0.243747,0.190363,0.855701429,0.034654592,0.109136837,-0.199603,-0.090912,-0.294415,1016.549011
383928,0.09259,-0.205715,0.158336,0.845741327,0.048986939,0.130019796,-0.202104,-0.086437,-0.293187,1016.549011
384028,0.129137,-0.16591,0.132795,0.846240816,0.06083398,0.153893776,-0.204563,-0.08929,-0.295339,1016.549011
384128,0.159805,-0.129044,0.121495,0.856464184,0.062052245,0.175876122,-0.209614,-0.091871,-0.29197,1016.549011
384228,0.169005,-0.095963,0.124332,0.871115408,0.074937653,0.200704898,-0.209617,-0.093864,-0.292071,1016.549011
384328,0.165768,-0.056404,0.128999,0.88570602,0.085376531,0.219599694,-0.211648,-0.094427,-0.290098,1016.549011
384428,0.164761,0.010307,0.131855,0.899983061,0.091217959,0.230443367,-0.210111,-0.096323,-0.292698,1016.549011
384528,0.167359,0.080859,0.129514,0.906455408,0.08684,0.207072449,-0.204557,-0.096217,-0.296695,1016.549011
384628,0.175927,0.129764,0.118602,0.911110918,0.081766122,0.174938673,-0.201495,-0.097068,-0.300743,1016.549011
384728,0.182573,0.150439,0.107309,0.914847449,0.072541327,0.159733265,-0.193429,-0.099919,-0.306391,1016.549011
384828,0.185102,0.149,0.098359,0.920331122,0.058762449,0.142031531,-0.184805,-0.101139,-0.314961,1016.549011
384928,0.180166,0.134356,0.098261,0.941683776,0.046194592,0.128893469,-0.173739,-0.098557,-0.320328,1016.549011
385028,0.168029,0.117023,0.1104,0.982512041,0.044605102,0.124817143,-0.169127,-0.098789,-0.32735,1016.550781
385128,0.139292,0.094706,0.129235,1.029976327,0.058147347,0.11840398,-0.160053,-0.100635,-0.333446,1016.550781
385228,0.08723,0.040419,0.153016,1.09406949,0.089380816,0.120407449,-0.156943,-0.100369,-0.339943,1016.550781
385328,0.027166,0.005845,0.169729,1.150003163,0.129012245,0.134962755,-0.15281,-0.100545,-0.347964,1016.550781
385428,-0.052414,-0.011189,0.179383,1.177768571,0.16821398,0.144815204,-0.15519,-0.096255,-0.353259,1016.550781
385528,-0.148264,-0.013278,0.168983,1.186718469,0.17552551,0.170954184,-0.152086,-0.093523,-0.359129,1016.550781
385628,-0.213923,-0.003853,0.140779,1.202099388,0.13871051,0.25287102,-0.153519,-0.090365,-0.361976,1016.550781
385728,-0.223916,0.067941,0.116188,1.24958551,0.098084898,0.354773469,-0.151437,-0.08719,-0.366321,1016.550781
385828,-0.181311,0.239487,0.097502,1.340417143,0.05705398,0.415806633,-0.146405,-0.089616,-0.369445,1016.550781
385928,-0.085961,0.490651,0.073048,1.449153878,0.008193163,0.396324082,-0.139924,-0.091688,-0.370045,1016.550781
386028,0.043107,0.734325,0.062804,1.498346633,-0.047509694,0.31713602,-0.128534,-0.098491,-0.367373,1016.550781
386128,0.152442,0.92527,0.066502,1.504438571,-0.068006939,0.218627755,-0.126237,-0.102998,-0.357579,1016.550781
386228,0.184529,1.039084,0.088954,1.52187449,-0.064202347,0.117253469,-0.121515,-0.113668,-0.345091,1016.550781
386328,0.137753,1.002902,0.106668,1.51186898,-0.031243163,0.002256939,-0.121854,-0.121486,-0.327953,1016.550781
386428,0.061383,0.822796,0.084503,1.437422449,0.025294796,-0.120686939,-0.13316,-0.124196,-0.309566,1016.550781
386528,-0.003347,0.549391,0.018274,1.297319286,0.055045408,-0.240385102,-0.153399,-0.128162,-0.293256,1016.550781
386628,-0.0278,0.243985,-0.066277,1.169684694,0.029023265,-0.30059398,-0.17198,-0.129252,-0.285315,1016.545044
386728,-0.03296,-0.050174,-0.135162,1.039056224,-0.010114286,-0.331428878,-0.193976,-0.121173,-0.279918,1016.545044
386828,-0.045864,-0.317975,-0.167256,0.933799082,-0.060467857,-0.31243949,-0.209376,-0.113382,-0.281041,1016.545044
386928,-0.032145,-0.506765,-0.181399,0.895495918,-0.135073469,-0.246440816,-0.224249,-0.104531,-0.283612,1016.545044
387028,0.031352,-0.568245,-0.168896,0.934310714,-0.228476224,-0.135964388,-0.232556,-0.092078,-0.290503,1016.545044
387128,0.137517,-0.49602,-0.141447,1.003605,-0.284716429,-0.022176939,-0.241862,-0.081103,-0.297469,1016.545044
387228,0.247563,-0.331155,-0.105615,1.07960398,-0.283694694,0.050742143,-0.248736,-0.076766,-0.302266,1016.545044
387328,0.319879,-0.153983,-0.069857,1.12334449,-0.224939286,0.06815398,-0.257144,-0.073996,-0.30514,1016.545044
387428,0.354403,-0.048347,-0.051867,1.123267449,-0.132589184,0.047460204,-0.263662,-0.072021,-0.302542,1016.545044
387528,0.361557,-0.020204,-0.060336,1.108195612,-0.036143061,0.034643163,-0.273635,-0.072385,-0.30207,1016.545044
387628,0.343227,-0.01959,-0.090222,1.082444388,0.052278163,0.037473163,-0.286134,-0.072308,-0.299575,1016.545044
387728,0.293133,-0.015648,-0.127676,1.033970714,0.117500102,0.027038571,-0.292671,-0.070381,-0.295977,1016.545044
387828,0.212598,-0.012628,-0.169791,0.970344184,0.141397143,0.006136327,-0.297114,-0.068221,-0.297876,1016.545044
387928,0.135327,-0.023957,-0.212873,0.89266602,0.135240306,-0.001685714,-0.307475,-0.064326,-0.3027,1016.545044
388028,0.073501,-0.061728,-0.244942,0.822038061,0.113279184,0.007188878,-0.313905,-0.059145,-0.304447,1016.545044
388128,0.02045,-0.100449,-0.266714,0.765857347,0.08029102,0.02048949,-0.314779,-0.053359,-0.310165,1016.545044
388228,-0.033283,-0.144772,-0.27253,0.721769694,0.040374286,0.029037041,-0.318083,-0.049359,-0.319485,1016.545044
388328,-0.069206,-0.188289,-0.260411,0.698642449,0.003010408,0.041642959,-0.32046,-0.043076,-0.324679,1016.545044
388428,-0.087322,-0.20709,-0.241951,0.70371102,-0.021365816,0.058831837,-0.318362,-0.035891,-0.32932,1016.545044
388528,-0.09278,-0.187484,-0.223522,0.716501531,-0.033029388,0.073310204,-0.318137,-0.02886,-0.340486,1016.545044
388628,-0.077996,-0.138428,-0.206954,0.732112959,-0.03729398,0.085551327,-0.316007,-0.024569,-0.347279,1016.545044
388728,-0.057465,-0.084747,-0.203852,0.747630306,-0.035380918,0.084565714,-0.319918,-0.019355,-0.350525,1016.545044
388828,-0.037518,-0.040178,-0.203854,0.765167245,-0.032619694,0.085852653,-0.319334,-0.01815,-0.354972,1016.545044
388928,-0.022094,-0.010101,-0.21196,0.774799592,-0.034614388,0.081779592,-0.320164,-0.01324,-0.36324,1016.545044
389028,-0.015261,-0.001951,-0.218061,0.784816939,-0.041220918,0.079619694,-0.321045,-0.010943,-0.369137,1016.545044
389128,-0.02162,0.000436,-0.217316,0.800365204,-0.044466939,0.077874592,-0.321939,-0.005206,-0.373856,1016.545044
389228,-0.043916,-0.012464,-0.211335,0.805920612,-0.045908469,0.073042857,-0.322727,0.002291,-0.383996,1016.545044
389328,-0.065316,-0.043465,-0.200974,0.807620102,-0.047905408,0.068308367,-0.321087,0.006117,-0.391315,1016.545044
389428,-0.078491,-0.096954,-0.184815,0.824016327,-0.052498469,0.065071327,-0.32093,0.010488,-0.399109,1016.545044
389528,-0.095998,-0.161098,-0.167523,0.845804184,-0.058805102,0.064312347,-0.321238,0.013468,-0.408978,1016.545044
389628,-0.102971,-0.229808,-0.145996,0.862388776,-0.07799898,0.074104184,-0.320214,0.018483,-0.409723,1016.545044
389728,-0.092278,-0.282782,-0.121808,0.870507653,-0.098022143,0.09318398,-0.324112,0.020756,-0.414121,1016.545044
389828,-0.076104,-0.309095,-0.093143,0.885720204,-0.113981939,0.118151224,-0.326478,0.023101,-0.420518,1016.546753
389928,-0.051571,-0.316094,-0.067854,0.900066122,-0.121878163,0.147617551,-0.32743,0.021743,-0.423093,1016.546753
390028,-0.021356,-0.309664,-0.052316,0.914876633,-0.115734898,0.180637449,-0.329372,0.024386,-0.425466,1016.546753
390128,0.005795,-0.276153,-0.048583,0.923971327,-0.096827041,0.213911633,-0.329829,0.021525,-0.428118,1016.546753
390228,0.028514,-0.230612,-0.060527,0.919656224,-0.074709082,0.226831837,-0.326803,0.021075,-0.430141,1016.546753
390328,0.055732,-0.175954,-0.08224,0.913013265,-0.065402449,0.226954184,-0.324688,0.017396,-0.437341,1016.546753
390428,0.079111,-0.107958,-0.10495,0.913037245,-0.064809388,0.217935408,-0.322105,0.017099,-0.442364,1016.546753
390528,0.097543,-0.031275,-0.124618,0.916232143,-0.071309388,0.203101633,-0.314023,0.017759,-0.448334,1016.546753
390628,0.127526,0.031736,-0.135801,0.927496327,-0.075857857,0.177197347,-0.306942,0.014948,-0.454481,1016.546753
390728,0.155356,0.080885,-0.14926,0.949705,-0.072423469,0.153289592,-0.299365,0.016589,-0.459901,1016.546753
390828,0.177309,0.114733,-0.159889,0.983202347,-0.067484388,0.145148673,-0.290332,0.012654,-0.4641,1016.546753
390928,0.204247,0.145624,-0.171405,1.024587857,-0.05983949,0.153038776,-0.285311,0.008709,-0.4668,1016.546753
391028,0.237023,0.151749,-0.187958,1.070014796,-0.056644184,0.148459796,-0.280296,0.001776,-0.469654,1016.546753
391128,0.279121,0.119265,-0.20477,1.124788571,-0.059096837,0.142785612,-0.276761,-0.00262,-0.47288,1016.546753
391228,0.33197,0.118378,-0.212635,1.191161224,-0.070445408,0.14921,-0.272268,-0.007625,-0.474132,1016.546753
391328,0.384151,0.15105,-0.209502,1.232771939,-0.074063878,0.131299286,-0.266829,-0.014759,-0.472987,1016.546753
391428,0.404684,0.170423,-0.193893,1.271904898,-0.056318776,0.148691531,-0.264416,-0.026901,-0.470597,1016.548523
391528,0.379616,0.188127,-0.175559,1.323775204,-0.016522347,0.239838367,-0.25955,-0.034718,-0.465478,1016.548523
391628,0.295213,0.208783,-0.163835,1.378706837,0.044271633,0.365856429,-0.253645,-0.044424,-0.46296,1016.548523
391728,0.170809,0.269026,-0.160342,1.440857245,0.113514898,0.456775816,-0.247366,-0.055945,-0.454021,1016.548523
391828,0.023691,0.421255,-0.157739,1.506152857,0.179513571,0.48556551,-0.237221,-0.071804,-0.439286,1016.548523
391928,-0.07453,0.627374,-0.166227,1.541813673,0.210117551,0.401248265,-0.229095,-0.092165,-0.42378,1016.548523
392028,-0.11531,0.798668,-0.181446,1.553270102,0.232591837,0.210088469,-0.223559,-0.111255,-0.402702,1016.548523
392128,-0.133378,0.843509,-0.203274,1.508938265,0.246848673,0.016518061,-0.225061,-0.129905,-0.378101,1016.548523
392228,-0.116097,0.705237,-0.218634,1.409686224,0.230561939,-0.169649082,-0.239036,-0.149403,-0.352556,1016.548523
392328,-0.087483,0.426741,-0.19318,1.256693673,0.17689449,-0.326252041,-0.260453,-0.162257,-0.327682,1016.548523
392428,-0.144259,0.061413,-0.146355,1.066425306,0.137072449,-0.424613673,-0.282255,-0.173817,-0.308755,1016.548523
392528,-0.253583,-0.315181,-0.095091,0.914032449,0.109157959,-0.415375816,-0.30586,-0.177913,-0.29897,1016.548523
392628,-0.325968,-0.606476,-0.050321,0.840141122,0.107405816,-0.30993102,-0.324907,-0.176431,-0.292402,1016.548523
392728,-0.310653,-0.741698,-0.034258,0.830050714,0.139491122,-0.17175949,-0.33789,-0.173333,-0.290254,1016.548523
392828,-0.225289,-0.753308,-0.039106,0.856083776,0.197302653,-0.036202551,-0.340366,-0.17028,-0.290602,1016.548523
392928,-0.185472,-0.647958,-0.043643,0.913732755,0.240874388,0.06121602,-0.342746,-0.160035,-0.295093,1016.548523
393028,-0.214035,-0.429232,-0.00976,0.987305918,0.239563673,0.124640204,-0.339588,-0.148238,-0.302505,1016.548523
393128,-0.254958,-0.171204,0.04438,1.052789694,0.246621327,0.102783265,-0.333056,-0.142739,-0.304722,1016.548523
393228,-0.292691,-0.009324,0.08823,1.065973367,0.250302551,0.007507959,-0.336817,-0.131185,-0.31516,1016.548523
393328,-0.323123,0.009318,0.112701,1.06884898,0.223539184,-0.063740102,-0.33674,-0.119582,-0.317575,1016.548523
393428,-0.365897,-0.049867,0.129856,1.076481735,0.16637949,-0.090311837,-0.340119,-0.105857,-0.321388,1016.548523
393528,-0.431454,-0.103993,0.138163,1.05678,0.09615,-0.074670714,-0.343974,-0.095042,-0.326854,1016.548523
393628,-0.471174,-0.141549,0.138612,1.013991429,0.040036429,-0.050753571,-0.349892,-0.087353,-0.328973,1016.548523
393728,-0.439281,-0.186368,0.124872,0.962882143,0.004464592,-0.040182551,-0.355773,-0.075109,-0.332364,1016.548523
393828,-0.345429,-0.232795,0.105851,0.923374286,0.000215,-0.025697347,-0.357757,-0.070095,-0.33211,1016.548523
393928,-0.238294,-0.269233,0.09265,0.895781429,0.017675714,-0.00543102,-0.358162,-0.064888,-0.336355,1016.548523
394028,-0.141466,-0.286887,0.07866,0.877224898,0.034631224,0.015674592,-0.35914,-0.059367,-0.336575,1016.548523
394128,-0.070845,-0.288852,0.071361,0.866995408,0.052691531,0.036417959,-0.357607,-0.058797,-0.338549,1016.548523
394228,-0.0165,-0.272253,0.073462,0.864012653,0.069339388,0.063183265,-0.355124,-0.057365,-0.337972,1016.548523
394328,0.020345,-0.248915,0.088192,0.864817653,0.084599184,0.083914388,-0.356146,-0.056426,-0.336422,1016.548523
394428,0.03406,-0.219936,0.110976,0.864778265,0.092103469,0.097059898,-0.355179,-0.05751,-0.334973,1016.548523
394528,0.016371,-0.181522,0.134875,0.851450918,0.097550816,0.102085408,-0.355789,-0.057791,-0.328976,1016.548523
394628,-0.010231,-0.128495,0.153518,0.832753878,0.099940816,0.102821633,-0.356359,-0.06144,-0.325655,1016.548523
394728,-0.033624,-0.06815,0.161941,0.805414082,0.093543776,0.091401122,-0.358446,-0.062645,-0.320709,1016.544495
394828,-0.036325,-0.019844,0.162822,0.779804286,0.082372245,0.065513776,-0.358019,-0.066309,-0.317387,1016.544495
394928,-0.021482,-0.000363,0.15698,0.765756327,0.071079694,0.03923102,-0.355579,-0.068462,-0.314989,1016.544495
395028,0.013209,-0.011851,0.14768,0.760782245,0.057165816,0.024616531,-0.353609,-0.071033,-0.314116,1016.544495
395128,0.053904,-0.050041,0.147543,0.759769694,0.043881224,0.026032551,-0.349119,-0.072575,-0.314691,1016.544495
395228,0.091448,-0.107479,0.154741,0.770942347,0.038048163,0.037227959,-0.345111,-0.070098,-0.315562,1016.544495
395328,0.121963,-0.160345,0.166888,0.792146224,0.045345918,0.060318673,-0.340148,-0.069727,-0.314536,1016.544495
395428,0.151767,-0.185056,0.175891,0.815633367,0.063277959,0.081902755,-0.333598,-0.069637,-0.318532,1016.544495
395528,0.185367,-0.172223,0.17399,0.834564592,0.081519286,0.095855,-0.329652,-0.070794,-0.316582,1016.544495
395628,0.215077,-0.134418,0.164547,0.838400816,0.092267755,0.101659898,-0.326642,-0.074256,-0.318259,1016.544495
395728,0.231491,-0.09589,0.147368,0.827115,0.098879592,0.098754694,-0.324699,-0.071443,-0.315107,1016.544495
395828,0.24308,-0.076953,0.12496,0.80790898,0.106475408,0.098947143,-0.323224,-0.076473,-0.314861,1016.544495
395928,0.241817,-0.076861,0.105836,0.798370306,0.126946633,0.109906633,-0.319268,-0.082563,-0.314165,1016.544495
396028,0.24632,-0.084926,0.095072,0.807218265,0.15156398,0.136117143,-0.314804,-0.083181,-0.313189,1016.544495
396128,0.249887,-0.07229,0.088152,0.832663571,0.173441327,0.158317041,-0.309307,-0.083718,-0.314212,1016.544495
396228,0.229842,-0.032864,0.091152,0.86300449,0.17353449,0.183113265,-0.305245,-0.082094,-0.318133,1016.544495
396328,0.20457,0.034646,0.095581,0.895958163,0.158086429,0.201239286,-0.303159,-0.081386,-0.323105,1016.546204
396428,0.16965,0.11498,0.101583,0.927889796,0.131765612,0.203638673,-0.296059,-0.078693,-0.329473,1016.546204
396528,0.157179,0.182078,0.110372,0.940624592,0.107803367,0.179536122,-0.28399,-0.077099,-0.335391,1016.546204
396628,0.164872,0.229941,0.118314,0.942305,0.102817245,0.163233163,-0.279891,-0.075378,-0.341311,1016.546204
396728,0.1872,0.269284,0.125152,0.940195,0.100641735,0.157538878,-0.27333,-0.074766,-0.345782,1016.546204
396828,0.198654,0.297597,0.137448,0.953028061,0.094526531,0.163442551,-0.268807,-0.072748,-0.347678,1016.546204
396928,0.188164,0.32813,0.154431,0.988133878,0.097231939,0.182193673,-0.262722,-0.075045,-0.353801,1016.546204
397028,0.15085,0.353484,0.179639,1.024579592,0.109640816,0.177890204,-0.25774,-0.074625,-0.353774,1016.546204
397128,0.087783,0.348246,0.20531,1.063923776,0.132809694,0.157976531,-0.250698,-0.072575,-0.357169,1016.546204
397228,0.004894,0.330136,0.230267,1.115343367,0.167495306,0.143717347,-0.244713,-0.07414,-0.357744,1016.546204
397328,-0.085769,0.325232,0.243664,1.170451837,0.197933163,0.161800918,-0.243144,-0.073473,-0.361716,1016.546204
397428,-0.160526,0.361267,0.243082,1.223499286,0.214506735,0.215225918,-0.239127,-0.071471,-0.363113,1016.546204
397528,-0.190547,0.448006,0.223502,1.275086429,0.214492143,0.30125949,-0.233673,-0.070136,-0.361535,1016.546204
397628,-0.181007,0.570534,0.198029,1.316354694,0.190980204,0.386735408,-0.231141,-0.067588,-0.363407,1016.546204
397728,-0.131939,0.728324,0.175334,1.365579796,0.126783469,0.429372143,-0.221251,-0.0719,-0.360108,1016.546204
397828,-0.057363,0.908102,0.16267,1.425142857,0.026167959,0.417978265,-0.212406,-0.072356,-0.353608,1016.546204
397928,0.02449,1.070016,0.16206,1.462263265,-0.093664694,0.349686837,-0.20719,-0.07957,-0.340442,1016.547974
398028,0.106551,1.153912,0.178645,1.457212449,-0.160538265,0.237113163,-0.202541,-0.089436,-0.323904,1016.547974
398128,0.159777,1.165044,0.22007,1.463090918,-0.165678571,0.117487857,-0.204965,-0.097961,-0.301795,1016.547974
398228,0.170643,1.073973,0.267825,1.461722347,-0.119564592,-0.005823571,-0.219405,-0.108933,-0.276817,1016.547974
398328,0.175957,0.840638,0.288869,1.38691,-0.033011837,-0.138032959,-0.238292,-0.120235,-0.253865,1016.547974
398428,0.154873,0.465831,0.241992,1.269416837,0.057862551,-0.264180306,-0.268123,-0.12835,-0.231264,1016.547974
398528,0.102883,0.070958,0.146503,1.17432,0.092586327,-0.313474184,-0.296293,-0.132093,-0.216957,1016.547974
398628,0.049827,-0.263297,0.053596,1.08633,0.061558061,-0.29530102,-0.3264,-0.129706,-0.204844,1016.547974
398728,-0.010362,-0.541728,-0.003489,0.97570051,0.025278776,-0.267066633,-0.349837,-0.12841,-0.203301,1016.547974
398828,-0.086515,-0.732126,-0.028064,0.902421531,-0.031802857,-0.195526939,-0.36479,-0.122741,-0.202026,1016.547974
398928,-0.083676,-0.75771,-0.041233,0.897682959,-0.11159,-0.073584694,-0.375198,-0.118967,-0.204351,1016.547974
399028,0.023683,-0.597355,-0.053198,0.939721327,-0.16284102,0.035534388,-0.377663,-0.115392,-0.205173,1016.547974
399128,0.190645,-0.326132,-0.069193,0.999136735,-0.190802143,0.107629694,-0.376175,-0.113446,-0.204571,1016.547974
399228,0.349772,-0.091206,-0.075882,1.051869286,-0.176367245,0.112774184,-0.37514,-0.112868,-0.206545,1016.547974
399328,0.438714,0.022179,-0.081322,1.088293265,-0.124876122,0.086838061,-0.371651,-0.111428,-0.206468,1016.547974
399428,0.473617,0.050829,-0.089287,1.105150918,-0.046587551,0.071440408,-0.373639,-0.108906,-0.206341,1016.547974
399528,0.464372,0.052453,-0.102647,1.083681429,0.033565,0.050154796,-0.375123,-0.10836,-0.206816,1016.547974
399628,0.420215,0.042953,-0.136352,1.036797959,0.105107755,0.024185306,-0.378573,-0.10325,-0.208062,1016.547974
399728,0.352613,0.019084,-0.180823,0.961332041,0.151897347,0.009368367,-0.384917,-0.096855,-0.214257,1016.547974
399828,0.278644,-0.029113,-0.223464,0.888393061,0.166722755,0.011450816,-0.386798,-0.091576,-0.219501,1016.547974
399928,0.22212,-0.092955,-0.260137,0.828796633,0.150397959,0.023564694,-0.388644,-0.082239,-0.226042,1016.547974
400028,0.175563,-0.164767,-0.285104,0.791394388,0.120662653,0.042120918,-0.388919,-0.071239,-0.236505,1016.547974
400128,0.121099,-0.217029,-0.289374,0.778949286,0.08246398,0.070115,-0.387732,-0.062825,-0.245594,1016.547974
400228,0.064651,-0.241429,-0.26815,0.773375918,0.037145612,0.089332041,-0.383078,-0.055512,-0.253734,1016.547974
400328,0.010517,-0.238995,-0.233249,0.774182245,0.008067347,0.099808878,-0.380374,-0.045081,-0.263721,1016.547974
400428,-0.034226,-0.201728,-0.198631,0.778279898,-0.013274082,0.104216633,-0.376712,-0.035261,-0.271734,1016.547974
400528,-0.062111,-0.140638,-0.174502,0.783589592,-0.020394694,0.10976102,-0.374059,-0.026943,-0.279323,1016.547974
400628,-0.07986,-0.08038,-0.16173,0.780279082,-0.020037653,0.110320918,-0.366389,-0.020103,-0.288987,1016.547974
400728,-0.092845,-0.039298,-0.15775,0.782241939,-0.020238469,0.104491531,-0.363306,-0.013457,-0.293154,1016.547974
400828,-0.105076,-0.015629,-0.158041,0.786654694,-0.022563469,0.100747755,-0.357625,-0.00509,-0.302742,1016.547974
400928,-0.11668,-0.005423,-0.16227,0.798477245,-0.018192041,0.096772143,-0.356982,-0.001249,-0.310061,1016.547974
401028,-0.131528,-0.00765,-0.160872,0.810311327,-0.009200204,0.089097755,-0.357292,0.005195,-0.319252,1016.547974
401128,-0.152716,-0.024743,-0.15358,0.822323878,-0.001955714,0.08807551,-0.352592,0.012629,-0.329891,1016.547974
401228,-0.168241,-0.055597,-0.142532,0.824527041,0.002937857,0.079207143,-0.354926,0.022496,-0.336906,1016.545593
401328,-0.179915,-0.116356,-0.130753,0.824747857,0.00089051,0.076990306,-0.354739,0.028932,-0.346098,1016.545593
401428,-0.18614,-0.203645,-0.115398,0.837876122,-0.010399694,0.080219388,-0.352641,0.036117,-0.350739,1016.545593
401528,-0.19169,-0.291238,-0.098151,0.855405,-0.022496429,0.100044796,-0.354491,0.042962,-0.357407,1016.545593
401628,-0.197202,-0.343493,-0.069559,0.872969694,-0.039400714,0.131224082,-0.357883,0.049213,-0.361602,1016.545593
401728,-0.198311,-0.371684,-0.042345,0.874466327,-0.057351429,0.166733163,-0.360769,0.05548,-0.366296,1016.545593
401828,-0.199674,-0.382172,-0.015118,0.870886327,-0.082796122,0.19983551,-0.364177,0.057721,-0.370194,1016.545593
401928,-0.180071,-0.377162,0.00839,0.863344898,-0.101857245,0.217614388,-0.368067,0.064478,-0.374363,1016.545593
402028,-0.152577,-0.349235,0.019109,0.858455,-0.106901531,0.224735816,-0.368052,0.067989,-0.374685,1016.545593
402128,-0.128758,-0.297845,0.020671,0.851197041,-0.110212959,0.216383571,-0.371402,0.071869,-0.381505,1016.545593
402228,-0.109354,-0.24586,0.016494,0.852368469,-0.104581224,0.211203367,-0.366361,0.073928,-0.384401,1016.545593
402328,-0.095879,-0.17706,0.011295,0.889247449,-0.087444184,0.214207551,-0.363774,0.076122,-0.389297,1016.545593
402428,-0.084199,-0.102554,0.00691,0.931163469,-0.069177143,0.207571429,-0.360206,0.079747,-0.393116,1016.545593
402528,-0.061815,-0.060689,0.001179,0.965345714,-0.056987143,0.192737959,-0.358628,0.080439,-0.397588,1016.545593
402628,-0.01866,-0.061784,-0.01019,0.994731837,-0.051639184,0.181105,-0.353985,0.081275,-0.406059,1016.545593
402728,0.045035,-0.093206,-0.023034,1.026730816,-0.048701122,0.169145408,-0.351968,0.084779,-0.40688,1016.545593
402828,0.109203,-0.098947,-0.040159,1.063319592,-0.052885102,0.171250714,-0.350449,0.082835,-0.40848,1016.543884
402928,0.155477,-0.042016,-0.062937,1.086663265,-0.059026735,0.171956633,-0.351413,0.085414,-0.409853,1016.543884
403028,0.195388,0.033224,-0.090889,1.090569082,-0.075316633,0.148996122,-0.348893,0.080987,-0.41208,1016.543884
403128,0.247466,0.092666,-0.121772,1.11512102,-0.093439898,0.136502347,-0.347891,0.079002,-0.412681,1016.543884
403228,0.332527,0.15695,-0.147326,1.159494898,-0.110088061,0.157113061,-0.345432,0.076897,-0.411283,1016.543884
403328,0.394762,0.220421,-0.148305,1.217013061,-0.086727959,0.201242143,-0.342504,0.068758,-0.409189,1016.543884
403428,0.401375,0.24295,-0.134751,1.283300612,-0.044756735,0.29192551,-0.335032,0.063183,-0.409966,1016.543884
403528,0.341341,0.251539,-0.111425,1.355838265,0.022876531,0.414692041,-0.330651,0.05293,-0.405974,1016.543884
403628,0.217227,0.304978,-0.086804,1.42996602,0.103083571,0.51025949,-0.318819,0.041017,-0.401057,1016.543884
403728,0.03215,0.460025,-0.073642,1.483092755,0.191729592,0.532368878,-0.305037,0.030944,-0.393539,1016.543884
403828,-0.106986,0.673661,-0.088183,1.487586531,0.250809796,0.449157857,-0.292378,0.017584,-0.379676,1016.543884
403928,-0.18491,0.877027,-0.127225,1.499049184,0.283941122,0.261845204,-0.279723,0.002232,-0.365914,1016.543884
404028,-0.202628,0.949227,-0.169776,1.497268469,0.270826633,0.051106122,-0.274026,-0.009499,-0.352476,1016.543884
404128,-0.178507,0.797839,-0.186981,1.465910204,0.220733163,-0.139917857,-0.273936,-0.019984,-0.331967,1016.543884
404228,-0.13311,0.479922,-0.154921,1.356507551,0.141977959,-0.318905714,-0.287777,-0.031695,-0.312538,1016.543884
404328,-0.165951,0.08325,-0.107675,1.150782857,0.096211939,-0.423289184,-0.309496,-0.038579,-0.297381,1016.543884
404428,-0.249069,-0.285413,-0.069516,0.974530306,0.088843673,-0.395842755,-0.331129,-0.038793,-0.285892,1016.545593
404528,-0.300155,-0.542906,-0.046146,0.89131102,0.102236735,-0.284741837,-0.34772,-0.041409,-0.278027,1016.545593
404628,-0.298656,-0.654519,-0.05371,0.844482143,0.13355551,-0.180740204,-0.359264,-0.03798,-0.272855,1016.545593
404728,-0.296645,-0.700501,-0.08821,0.821025204,0.187610408,-0.092465612,-0.363755,-0.03148,-0.271526,1016.545593
404828,-0.356978,-0.648762,-0.09745,0.857794796,0.214331531,0.024757347,-0.36514,-0.022746,-0.276093,1016.545593
404928,-0.447312,-0.434846,-0.054601,0.968350204,0.225422653,0.139018673,-0.364049,-0.016068,-0.280261,1016.545593
405028,-0.498961,-0.153096,0.013897,1.073241531,0.233628776,0.144313061,-0.357913,-0.004841,-0.287197,1016.545593
405128,-0.507046,0.022616,0.070593,1.095861122,0.256162449,0.053816327,-0.353802,0.008315,-0.292033,1016.545593
405228,-0.512048,0.056247,0.096249,1.110339898,0.243434388,-0.028685408,-0.355661,0.021091,-0.297396,1016.545593
405328,-0.537296,0.028403,0.101829,1.113706633,0.184210612,-0.065965408,-0.358477,0.034976,-0.304708,1016.545593
405428,-0.577521,-0.008387,0.097096,1.082038673,0.096840204,-0.073177959,-0.360343,0.048227,-0.309546,1016.545593
405528,-0.579975,-0.057655,0.078477,1.030818571,0.000471531,-0.083126429,-0.366757,0.057418,-0.31159,1016.545593
405628,-0.507569,-0.151492,0.055005,0.972817041,-0.069509082,-0.095132449,-0.371656,0.07209,-0.313854,1016.545593
405728,-0.359957,-0.297578,0.041294,0.926194388,-0.09932602,-0.098673673,-0.378092,0.079241,-0.315,1016.545593
405828,-0.192619,-0.444606,0.036112,0.888959796,-0.101107449,-0.072401122,-0.380553,0.085307,-0.315695,1016.545593
405928,-0.042557,-0.532577,0.04195,0.865298163,-0.085853265,-0.022237245,-0.38198,0.091952,-0.318364,1016.545593
406028,0.068612,-0.55115,0.051261,0.849396429,-0.062656837,0.03333602,-0.381984,0.094917,-0.317712,1016.545593
406128,0.134653,-0.535031,0.071994,0.82901551,-0.035915918,0.075218469,-0.376987,0.093392,-0.318786,1016.545593
406228,0.150365,-0.492165,0.098009,0.80816898,0.002118673,0.094591327,-0.372985,0.09238,-0.319835,1016.545593
406328,0.139134,-0.447533,0.130339,0.784646531,0.043904694,0.100382347,-0.368042,0.091707,-0.31786,1016.545593
406428,0.112255,-0.383557,0.160417,0.769542959,0.082626939,0.106427449,-0.361107,0.090503,-0.315909,1016.545593
406528,0.078894,-0.29557,0.183883,0.760508571,0.114542449,0.112173469,-0.35365,0.087371,-0.315559,1016.545593
406628,0.047197,-0.214226,0.191572,0.749733265,0.135677041,0.108088265,-0.346694,0.082752,-0.315286,1016.545593
406728,0.030434,-0.164629,0.187836,0.752771939,0.139447959,0.095522755,-0.339209,0.079194,-0.316461,1016.545593
406828,0.025328,-0.135513,0.182979,0.771286429,0.124478878,0.072172041,-0.328772,0.076489,-0.315586,1016.545593
406928,0.039801,-0.132065,0.181075,0.785759796,0.099328673,0.040998469,-0.324314,0.077841,-0.314008,1016.545593
407028,0.063339,-0.150352,0.177888,0.802424592,0.068247857,0.021208571,-0.317317,0.075809,-0.315607,1016.545593
407128,0.100039,-0.196424,0.17644,0.815375,0.042375204,0.014724286,-0.309726,0.074509,-0.322179,1016.545593
407228,0.121423,-0.242113,0.172611,0.832010306,0.023838673,0.018685918,-0.304736,0.074454,-0.322677,1016.545593
407328,0.131632,-0.30116,0.171017,0.839608367,0.023299694,0.03597,-0.304714,0.075997,-0.3236,1016.545593
407428,0.159248,-0.345307,0.164625,0.857080102,0.041339082,0.058693878,-0.30625,0.073931,-0.321703,1016.545593
407528,0.204541,-0.34923,0.148385,0.873477347,0.071985306,0.085857449,-0.3083,0.072822,-0.318756,1016.547302
407628,0.251253,-0.32586,0.122834,0.868199592,0.097066735,0.102359796,-0.310861,0.069704,-0.31541,1016.547302
407728,0.293766,-0.287034,0.092744,0.858430714,0.117043878,0.124155102,-0.312918,0.064608,-0.312666,1016.547302
407828,0.32322,-0.231011,0.058468,0.849396327,0.132334898,0.142923776,-0.314963,0.061032,-0.310346,1016.547302
407928,0.323641,-0.192271,0.037537,0.837735408,0.138369592,0.153900408,-0.315994,0.062446,-0.308271,1016.547302
408028,0.309063,-0.179936,0.02382,0.832061429,0.135701531,0.165386327,-0.314578,0.05478,-0.305153,1016.547302
408128,0.294251,-0.160387,0.023376,0.835408367,0.123400714,0.181735408,-0.310546,0.055336,-0.307625,1016.547302
408228,0.2741,-0.11976,0.039775,0.851051735,0.112880918,0.184781633,-0.304433,0.053111,-0.315247,1016.547302
408328,0.264486,-0.054669,0.05712,0.879361327,0.110737449,0.179964082,-0.297846,0.053297,-0.321243,1016.547302
408428,0.247463,0.026701,0.067955,0.911774898,0.117491633,0.165295204,-0.286718,0.054554,-0.330185,1016.547302
408528,0.210567,0.084891,0.0752,0.935212041,0.125487245,0.145877653,-0.278102,0.053808,-0.33823,1016.547302
408628,0.16254,0.119515,0.078568,0.948608163,0.136182857,0.134384694,-0.267446,0.054646,-0.348697,1016.547302
408728,0.115143,0.14172,0.089945,0.970212653,0.149881224,0.132713571,-0.26036,0.054824,-0.354693,1016.547302
408828,0.068812,0.181657,0.103754,1.002406939,0.160104286,0.126590714,-0.251757,0.057518,-0.361561,1016.547302
408928,0.008227,0.203076,0.118952,1.043433878,0.169079082,0.114486837,-0.244591,0.056419,-0.372131,1016.547302
409028,-0.063653,0.18006,0.132799,1.095949388,0.190176429,0.101509184,-0.23999,0.059626,-0.377974,1016.547302
409128,-0.138613,0.128504,0.136054,1.151054592,0.215169286,0.111435,-0.236342,0.061973,-0.386368,1016.547302
409228,-0.210586,0.094421,0.13475,1.191908571,0.225159286,0.139904898,-0.230323,0.064466,-0.388238,1016.549011
409328,-0.276513,0.116577,0.127225,1.23058102,0.21721949,0.19374102,-0.228701,0.068242,-0.394557,1016.549011
409428,-0.319927,0.210134,0.109916,1.27047449,0.193367755,0.26797,-0.22213,0.075332,-0.398698,1016.549011
409528,-0.306388,0.340659,0.088981,1.313206224,0.164890816,0.347497959,-0.216554,0.07698,-0.403618,1016.549011
409628,-0.234024,0.505809,0.06223,1.387288367,0.118501224,0.413638878,-0.20502,0.078984,-0.407512,1016.549011
409728,-0.130044,0.713825,0.036253,1.480063469,0.040693163,0.417211837,-0.192653,0.077075,-0.403086,1016.549011
409828,-0.041232,0.909927,0.035007,1.541427857,-0.03584949,0.325332347,-0.178934,0.073785,-0.391213,1016.549011
409928,0.018283,1.018714,0.046865,1.545979286,-0.065474796,0.159949286,-0.171332,0.064771,-0.372625,1016.549011
410028,0.068676,1.026369,0.066627,1.551844898,-0.064651122,0.006663163,-0.168264,0.053218,-0.351665,1016.549011
410128,0.099896,0.925371,0.104736,1.515737653,-0.043529388,-0.142553878,-0.176732,0.04412,-0.326084,1016.549011
410228,0.074906,0.678754,0.138257,1.400297551,0.005527551,-0.316770306,-0.193225,0.035503,-0.297482,1016.549011
410328,0.000192,0.371902,0.128033,1.261968265,0.031343265,-0.41749551,-0.224971,0.029107,-0.278804,1016.549011
410428,-0.063316,0.066094,0.064358,1.130672551,0.005048469,-0.448559592,-0.253669,0.024801,-0.263022,1016.549011
410528,-0.081873,-0.228527,0.007381,1.014402143,-0.026404082,-0.398811122,-0.28224,0.023798,-0.253586,1016.549011
410628,-0.096753,-0.486033,-0.014167,0.914409898,-0.044950408,-0.320239082,-0.306155,0.026644,-0.252966,1016.549011
410728,-0.056354,-0.646704,-0.019588,0.884699898,-0.091285102,-0.175764184,-0.319629,0.033736,-0.250615,1016.549011
410828,0.118397,-0.655634,-0.030072,0.919921224,-0.149915306,-0.043275816,-0.331539,0.03305,-0.253169,1016.550781
410928,0.355019,-0.486525,-0.033171,1.01828949,-0.226183776,0.031967653,-0.333526,0.031112,-0.253771,1016.550781
411028,0.549081,-0.189038,-0.023662,1.120726939,-0.270022143,0.062125816,-0.335532,0.028629,-0.253399,1016.550781
411128,0.674876,0.0161,-0.008142,1.141083163,-0.227999592,-0.001187143,-0.340049,0.025638,-0.252053,1016.550781
411228,0.70907,0.053674,0.002903,1.137959286,-0.137101939,-0.052716939,-0.34113,0.019482,-0.24836,1016.550781
411328,0.662734,0.031405,0.018411,1.135589592,-0.049260102,-0.044748061,-0.348186,0.009959,-0.245346,1016.550781
411428,0.556681,0.000398,0.026189,1.113552041,0.044939388,-0.023761327,-0.353226,0.0079,-0.24245,1016.550781
411528,0.406813,-0.011954,0.026982,1.059857653,0.130033673,0.00253602,-0.362782,0.003349,-0.238184,1016.550781
411628,0.255537,-0.01096,0.016879,0.975189286,0.185658878,0.026277755,-0.370304,0.001354,-0.235789,1016.550781
411728,0.133302,-0.005661,-0.007769,0.883447347,0.205861735,0.047963061,-0.379262,0.001023,-0.236317,1016.550781
411828,0.040301,0.003711,-0.033243,0.806223265,0.189796429,0.041541224,-0.382301,-0.001541,-0.233946,1016.550781
411928,-0.034931,-0.020493,-0.045154,0.745148265,0.154603163,0.021655816,-0.389687,0.000288,-0.23837,1016.550781
412028,-0.107875,-0.0642,-0.044421,0.706895,0.11522602,0.01821102,-0.391117,-1.70E-05,-0.241894,1016.550781
412128,-0.185874,-0.10502,-0.032705,0.702654184,0.067265918,0.032166429,-0.393088,0.001557,-0.242818,1016.550781
412228,-0.240867,-0.101461,-0.009934,0.714872653,0.023310612,0.053706224,-0.391015,0.005206,-0.246639,1016.550781
412328,-0.264156,-0.068438,0.023336,0.741372653,-0.013334082,0.06945051,-0.392441,0.006893,-0.250061,1016.550781
412428,-0.237239,-0.015375,0.049526,0.761791531,-0.040135102,0.070514592,-0.390359,0.010566,-0.254381,1016.550781
412528,-0.180386,0.033293,0.056544,0.76881449,-0.062418673,0.056885408,-0.394314,0.011698,-0.255831,1016.550781
412628,-0.127208,0.046504,0.050252,0.775511735,-0.079912653,0.060678776,-0.390743,0.017315,-0.259549,1016.550781
412728,-0.121337,0.041418,0.035933,0.793161837,-0.096925408,0.081523673,-0.392158,0.020521,-0.263396,1016.550781
412828,-0.145121,0.029211,0.029437,0.805448367,-0.108290408,0.087703571,-0.394514,0.022891,-0.270292,1016.550781
412928,-0.170618,0.000647,0.040452,0.799697959,-0.103830408,0.065917143,-0.395476,0.026466,-0.271614,1016.550781
413028,-0.20419,-0.023621,0.059132,0.790961224,-0.078138673,0.043098776,-0.39439,0.030155,-0.275934,1016.550781
413128,-0.244084,-0.061147,0.07551,0.782115204,-0.050877959,0.018950714,-0.392281,0.033401,-0.281778,1016.550781
413228,-0.25552,-0.13028,0.086092,0.777834286,-0.032754592,0.014188673,-0.391709,0.038544,-0.285023,1016.550781
413328,-0.243551,-0.230429,0.09264,0.786878673,-0.025832653,0.030778673,-0.389647,0.040674,-0.288419,1016.550781
413428,-0.229512,-0.337948,0.097993,0.807049796,-0.036587245,0.067116429,-0.389947,0.048139,-0.29806,1016.550781
413528,-0.214053,-0.426625,0.104629,0.833740306,-0.063564082,0.102195918,-0.390403,0.050735,-0.299932,1016.550781
413628,-0.197967,-0.473803,0.109299,0.863163776,-0.096871939,0.138826939,-0.387306,0.05444,-0.305251,1016.550781
413728,-0.185523,-0.465502,0.108189,0.886426735,-0.121917347,0.17775898,-0.388251,0.057565,-0.307598,1016.550781
413828,-0.178667,-0.388045,0.097708,0.895182857,-0.13286949,0.209625,-0.38321,0.059624,-0.310494,1016.550781
413928,-0.185587,-0.270618,0.077307,0.891126327,-0.128517347,0.21988051,-0.383598,0.058924,-0.316542,1016.550781
414028,-0.189048,-0.153736,0.054862,0.8763,-0.112746837,0.210229184,-0.380524,0.059592,-0.321014,1016.548523
414128,-0.182178,-0.073105,0.028797,0.863836939,-0.09413,0.185347449,-0.371028,0.062005,-0.322384,1016.548523
414228,-0.151209,-0.034992,0.009074,0.879836531,-0.089824898,0.16684398,-0.361466,0.064587,-0.327252,1016.548523
414328,-0.102079,-0.015008,-0.004678,0.920896224,-0.087576837,0.16965,-0.357858,0.064844,-0.333748,1016.548523
414428,-0.043244,0.010195,-0.015614,0.973656327,-0.092994286,0.180533673,-0.347739,0.064099,-0.342293,1016.548523
414528,0.019513,0.035047,-0.029882,1.018538469,-0.106884082,0.190289388,-0.338645,0.063298,-0.349338,1016.548523
414628,0.07637,0.069079,-0.043107,1.058851531,-0.123477347,0.190326735,-0.331099,0.062874,-0.35336,1016.548523
414728,0.120055,0.117142,-0.064812,1.070194388,-0.132714286,0.170057449,-0.327093,0.058897,-0.355061,1016.548523
414828,0.155973,0.1349,-0.088323,1.055768265,-0.13821602,0.151196633,-0.318555,0.056464,-0.359184,1016.548523
414928,0.194974,0.137887,-0.113687,1.053828878,-0.14143102,0.14776,-0.313117,0.048831,-0.358063,1016.548523
415028,0.24307,0.168469,-0.13601,1.079308469,-0.13556602,0.172334694,-0.302611,0.042831,-0.361364,1016.548523
415128,0.268477,0.246182,-0.149336,1.136005306,-0.117103469,0.211086429,-0.295184,0.033174,-0.360345,1016.548523
415228,0.249291,0.343241,-0.155839,1.208174898,-0.092147653,0.260387449,-0.28426,0.024482,-0.359774,1016.548523
415328,0.193422,0.435837,-0.148959,1.298615102,-0.05043898,0.350401837,-0.273303,0.012897,-0.361354,1016.548523
415428,0.088764,0.554079,-0.135788,1.390680714,0.015403673,0.449129286,-0.259442,5.10E-05,-0.358486,1016.548523
415528,-0.048767,0.718475,-0.143956,1.465669898,0.09875898,0.48648,-0.244128,-0.014409,-0.353695,1016.548523
415628,-0.165254,0.903087,-0.177925,1.520208878,0.170158673,0.442239082,-0.22682,-0.028403,-0.348878,1016.548523
415728,-0.219418,1.010702,-0.236662,1.528168061,0.20922398,0.299829898,-0.211658,-0.045241,-0.336191,1016.548523
415828,-0.222661,0.991387,-0.311257,1.553731939,0.217704286,0.132139796,-0.197544,-0.059717,-0.320379,1016.548523
415928,-0.201819,0.902111,-0.369499,1.609859286,0.182898163,-0.019481531,-0.200946,-0.073137,-0.300024,1016.548523
416028,-0.14211,0.69573,-0.399315,1.584376224,0.114755816,-0.197131735,-0.213354,-0.088504,-0.277773,1016.548523
416128,-0.104461,0.405928,-0.39835,1.432312347,0.047223061,-0.329147041,-0.235685,-0.101623,-0.257423,1016.548523
416228,-0.124361,0.105569,-0.364422,1.212720612,0.001066633,-0.363413265,-0.258964,-0.108652,-0.238768,1016.548523
416328,-0.155834,-0.142159,-0.304825,1.030957653,-0.00491602,-0.302166224,-0.284667,-0.12043,-0.224365,1016.548523
416428,-0.111994,-0.296651,-0.259135,0.910320816,0.014899286,-0.198735612,-0.298761,-0.124556,-0.217076,1016.548523
416528,-0.019329,-0.375012,-0.244984,0.843763265,0.069963571,-0.114780204,-0.307837,-0.133623,-0.212538,1016.548523
416628,-0.005877,-0.416441,-0.243903,0.802809388,0.152135918,-0.057613878,-0.305385,-0.134756,-0.210589,1016.548523
416728,-0.125351,-0.428855,-0.240633,0.802208776,0.224492857,-0.00443398,-0.300934,-0.131933,-0.208436,1016.548523
416828,-0.296404,-0.384304,-0.212816,0.874286531,0.261779082,0.048889184,-0.292332,-0.129738,-0.215329,1016.548523
416928,-0.415796,-0.256004,-0.163152,0.978664082,0.267656939,0.053098265,-0.286791,-0.121234,-0.217395,1016.548523
417028,-0.485623,-0.156824,-0.111425,1.002087551,0.264180408,-0.017048163,-0.282682,-0.108577,-0.222256,1016.548523
417128,-0.533991,-0.14345,-0.069066,0.995259694,0.21023898,-0.093001837,-0.285028,-0.09527,-0.228094,1016.548523
417228,-0.582527,-0.16917,-0.023925,0.998262857,0.119780714,-0.106433878,-0.291875,-0.081443,-0.232908,1016.548523
417328,-0.590705,-0.207769,0.005324,0.995666939,0.007564286,-0.101672653,-0.298238,-0.064682,-0.23657,1016.548523
417428,-0.551999,-0.258982,0.003831,0.979625714,-0.07054,-0.107254184,-0.30659,-0.051353,-0.24091,1016.548523
417528,-0.47109,-0.330135,-0.025981,0.956890102,-0.105327245,-0.091589796,-0.317019,-0.044163,-0.241557,1016.548523
417628,-0.344058,-0.382713,-0.059523,0.939413776,-0.09749398,-0.050403163,-0.319931,-0.036972,-0.244701,1016.548523
417728,-0.184679,-0.40238,-0.084757,0.930843673,-0.079531531,0.001104388,-0.331808,-0.029638,-0.247848,1016.548523
417828,-0.03839,-0.375771,-0.089199,0.92845051,-0.063671735,0.042538163,-0.333275,-0.024584,-0.248594,1016.548523
417928,0.077617,-0.310516,-0.0735,0.924841939,-0.050832245,0.068743571,-0.338752,-0.023003,-0.248519,1016.548523
418028,0.147172,-0.243103,-0.043532,0.908969082,-0.04266051,0.046230306,-0.336756,-0.021041,-0.248417,1016.548523
418128,0.180944,-0.241448,-0.001262,0.876155204,-0.026137347,0.020645,-0.337286,-0.023597,-0.247045,1016.548523
418228,0.175479,-0.286896,0.043271,0.840307143,-0.002093776,0.027244796,-0.339848,-0.027214,-0.243725,1016.548523
418328,0.142713,-0.321236,0.088484,0.819492041,0.029319898,0.062139898,-0.338864,-0.028748,-0.243301,1016.548523
418428,0.115229,-0.305648,0.129663,0.802981327,0.052906633,0.098568571,-0.334923,-0.032893,-0.241504,1016.548523
418528,0.11263,-0.238783,0.157998,0.781023673,0.073758061,0.111529082,-0.331461,-0.031527,-0.239927,1016.548523
418628,0.120391,-0.162273,0.173386,0.759153265,0.08374551,0.102169184,-0.324022,-0.039665,-0.239331,1016.548523
418728,0.137574,-0.102741,0.184299,0.747726939,0.077950816,0.085359898,-0.31706,-0.040796,-0.23888,1016.548523
418828,0.163823,-0.068496,0.187746,0.760139592,0.065132449,0.067978265,-0.30461,-0.042987,-0.238978,1016.548523
418928,0.187681,-0.070547,0.185551,0.777478776,0.048844694,0.049502347,-0.294574,-0.048408,-0.243752,1016.548523
419028,0.210637,-0.097098,0.189583,0.801321429,0.026215102,0.03951551,-0.281567,-0.048469,-0.246747,1016.548523
419128,0.247579,-0.129067,0.193342,0.830292245,0.010133776,0.038610714,-0.272589,-0.052549,-0.247948,1016.548523
419228,0.298074,-0.152797,0.196237,0.85127949,0.006856224,0.045706837,-0.261059,-0.053037,-0.251968,1016.548523
419328,0.346704,-0.161891,0.184451,0.865228571,0.027178061,0.059235918,-0.257089,-0.056113,-0.251619,1016.548523
419428,0.383169,-0.15662,0.163609,0.865155306,0.056904898,0.073982551,-0.247614,-0.060699,-0.252844,1016.548523
419528,0.402471,-0.146083,0.134949,0.854439592,0.09113449,0.096198061,-0.247181,-0.066332,-0.250125,1016.548523
419628,0.41018,-0.127274,0.105313,0.834245,0.119752041,0.117396837,-0.242246,-0.07149,-0.248378,1016.548523
419728,0.416814,-0.111302,0.082711,0.817718265,0.140426327,0.142612959,-0.240803,-0.074125,-0.246006,1016.548523
419828,0.418352,-0.097605,0.066447,0.801766735,0.150328367,0.165815816,-0.237805,-0.079605,-0.247284,1016.548523
419928,0.404653,-0.08645,0.062023,0.791208878,0.148397857,0.192323776,-0.231804,-0.082119,-0.248909,1016.548523
420028,0.37933,-0.052893,0.065924,0.793542653,0.136115612,0.21127102,-0.222269,-0.084069,-0.253006,1016.548523
420128,0.355375,0.020112,0.081342,0.81896949,0.115260204,0.213766429,-0.211726,-0.085015,-0.257551,1016.548523
420228,0.327501,0.120119,0.101329,0.857812653,0.099866224,0.197593673,-0.197698,-0.086514,-0.262121,1016.548523
420328,0.286881,0.213187,0.12283,0.888844388,0.086300816,0.172091939,-0.185584,-0.085796,-0.270589,1016.548523
420428,0.25508,0.271419,0.146868,0.916216429,0.081732959,0.157185714,-0.176453,-0.086999,-0.279659,1016.548523
420528,0.23149,0.295324,0.175805,0.94587,0.084741939,0.163852959,-0.163433,-0.090002,-0.283806,1016.548523
420628,0.199572,0.307729,0.199962,0.983361735,0.094972143,0.172098878,-0.15237,-0.089413,-0.289275,1016.548523
420728,0.143485,0.320074,0.219396,1.033602143,0.113484694,0.176681735,-0.146837,-0.090351,-0.292323,1016.548523
420828,0.064889,0.329962,0.23141,1.090372959,0.142619694,0.166143367,-0.136313,-0.091345,-0.295869,1016.548523
420928,-0.022607,0.318809,0.233323,1.142501224,0.182659796,0.142791735,-0.129815,-0.094365,-0.297519,1016.548523
421028,-0.121562,0.269517,0.226305,1.187937449,0.228059286,0.12270449,-0.12278,-0.091342,-0.300363,1016.548523
421128,-0.227937,0.230697,0.201891,1.222293673,0.26510398,0.14270051,-0.119239,-0.092249,-0.303412,1016.548523
421228,-0.3153,0.246274,0.166763,1.236055306,0.268887857,0.202982245,-0.114291,-0.089933,-0.301284,1016.548523
421328,-0.355728,0.296336,0.123415,1.257644082,0.222808265,0.282181939,-0.10669,-0.090213,-0.308304,1016.548523
421428,-0.352234,0.364102,0.09757,1.301853163,0.144894592,0.371125918,-0.098715,-0.087848,-0.308175,1016.548523
421528,-0.318139,0.466079,0.081627,1.390252347,0.067086633,0.430098571,-0.086809,-0.089155,-0.305723,1016.548523
421628,-0.266453,0.628783,0.078284,1.483205102,-0.017173571,0.437285612,-0.071977,-0.089681,-0.299721,1016.548523
421728,-0.190135,0.818132,0.090047,1.528124898,-0.085702959,0.382858265,-0.057754,-0.094948,-0.288449,1016.548523
421828,-0.110723,0.967263,0.111062,1.524841122,-0.09512898,0.25313898,-0.047603,-0.102362,-0.272783,1016.548523
421928,-0.092085,1.026418,0.144497,1.505751837,-0.069958265,0.095081633,-0.042589,-0.109109,-0.24857,1016.548523
422028,-0.08695,0.957458,0.146599,1.473982041,-0.039163776,-0.048947449,-0.047511,-0.116125,-0.225885,1016.548523
422128,-0.077028,0.81319,0.103035,1.388784286,-0.029104184,-0.202788776,-0.06491,-0.120524,-0.201577,1016.548523
422228,-0.074216,0.549295,0.018937,1.254016633,-0.066077653,-0.352314898,-0.085725,-0.121709,-0.180618,1016.548523
422328,-0.095994,0.196424,-0.053355,1.132963776,-0.128525918,-0.412553367,-0.107797,-0.120276,-0.172051,1016.548523
422428,-0.13526,-0.15915,-0.068697,1.016405408,-0.159606429,-0.391100102,-0.128736,-0.114038,-0.170254,1016.548523
422528,-0.182487,-0.486021,-0.041463,0.925733163,-0.164416939,-0.332506327,-0.145224,-0.110932,-0.167108,1016.548523
422628,-0.168963,-0.697634,-0.011142,0.903902551,-0.180273163,-0.206667755,-0.150645,-0.104248,-0.169278,1016.548523
422728,-0.045274,-0.700877,0.007294,0.944449592,-0.206560612,-0.057017551,-0.15352,-0.09696,-0.174421,1016.548523
422828,0.12613,-0.50011,0.010309,1.018308265,-0.202405816,0.047811837,-0.147444,-0.094323,-0.17929,1016.548523
422928,0.282795,-0.18639,-0.013614,1.095068469,-0.160869388,0.106295408,-0.139931,-0.091854,-0.18116,1016.548523
423028,0.393751,0.069385,-0.058867,1.129996429,-0.109753776,0.093910714,-0.132985,-0.096995,-0.180413,1016.548523
423128,0.467354,0.191272,-0.111454,1.133258367,-0.051982653,0.047791735,-0.132522,-0.096103,-0.178362,1016.548523
423228,0.508208,0.204982,-0.151746,1.110551224,0.004144082,0.01779051,-0.134522,-0.100057,-0.178566,1016.548523
423328,0.503371,0.150974,-0.170629,1.058412041,0.050137653,-0.012357857,-0.142515,-0.097512,-0.176942,1016.548523
423428,0.429001,0.055655,-0.18372,0.974895612,0.094608469,-0.035779592,-0.150024,-0.09749,-0.174945,1016.548523
423528,0.335606,-0.061352,-0.208243,0.884176735,0.127298163,-0.023658571,-0.158895,-0.090654,-0.179116,1016.548523
423628,0.253812,-0.171335,-0.244347,0.812734592,0.131001224,0.02444102,-0.169786,-0.083858,-0.181788,1016.548523
423728,0.179974,-0.25394,-0.278452,0.761035612,0.117956735,0.067850612,-0.175163,-0.07805,-0.186508,1016.548523
423828,0.109183,-0.291088,-0.292506,0.732721837,0.093326633,0.09906449,-0.176531,-0.069766,-0.1921,1016.548523
423928,0.049601,-0.281031,-0.287791,0.72041,0.050373367,0.10447449,-0.180401,-0.061964,-0.197218,1016.548523
424028,0.004288,-0.264291,-0.263133,0.707183265,0.008477041,0.088008878,-0.183247,-0.054605,-0.203861,1016.548523
424128,-0.024296,-0.245474,-0.232294,0.707359796,-0.018024796,0.076408265,-0.184597,-0.04677,-0.210477,1016.548523
424228,-0.026455,-0.213973,-0.204516,0.710075612,-0.031275,0.082314694,-0.186923,-0.037377,-0.218018,1016.548523
424328,-0.014868,-0.188194,-0.189183,0.713693673,-0.033275816,0.088218469,-0.186782,-0.031061,-0.22471,1016.548523
424428,-0.000834,-0.187688,-0.190727,0.718494184,-0.022460714,0.095262449,-0.187662,-0.023307,-0.229827,1016.548523
424528,-0.002209,-0.184701,-0.207858,0.72807102,-0.013184694,0.102947755,-0.187507,-0.013978,-0.236867,1016.548523
424628,-0.009044,-0.17863,-0.225065,0.745543469,-0.010745714,0.106631735,-0.185886,-0.005243,-0.242432,1016.548523
424728,-0.010485,-0.159018,-0.233717,0.763105714,-0.014749082,0.10508551,-0.186759,0.001539,-0.2481,1016.548523
424828,-0.008507,-0.133468,-0.233118,0.773853878,-0.029326429,0.092438878,-0.185618,0.009832,-0.254691,1016.548523
424928,-0.007194,-0.128581,-0.220295,0.786540714,-0.043481429,0.067445714,-0.184424,0.016775,-0.264356,1016.548523
425028,0.005256,-0.153121,-0.200594,0.803605,-0.057325612,0.047683163,-0.181301,0.024514,-0.270472,1016.548523
425128,0.024051,-0.204148,-0.178976,0.826117755,-0.070432755,0.041898878,-0.182599,0.030998,-0.280163,1016.548523
425228,0.043827,-0.269586,-0.163074,0.863673673,-0.077808061,0.048828571,-0.184452,0.036349,-0.286907,1016.548523
425328,0.051874,-0.326158,-0.145971,0.904336735,-0.081010612,0.071405306,-0.186823,0.041162,-0.292677,1016.548523
425428,0.045649,-0.363245,-0.128752,0.929071531,-0.083757143,0.10028398,-0.189686,0.044014,-0.299048,1016.548523
425528,0.02798,-0.388336,-0.106622,0.93420102,-0.076463469,0.132032755,-0.194094,0.044776,-0.303023,1016.548523
425628,-3.70E-05,-0.399431,-0.0873,0.929440306,-0.060055408,0.166251224,-0.193056,0.047347,-0.304894,1016.548523
425728,-0.012203,-0.393357,-0.076421,0.916690408,-0.047317245,0.200221633,-0.19644,0.048166,-0.310368,1016.548523
425828,-0.005946,-0.362428,-0.076996,0.912526122,-0.044747449,0.218430204,-0.200898,0.046316,-0.31197,1016.548523
425928,0.024969,-0.314547,-0.082358,0.915571429,-0.046326122,0.220240816,-0.197305,0.048519,-0.317366,1016.548523
426028,0.05606,-0.244143,-0.09854,0.919942551,-0.049544388,0.202527449,-0.193744,0.048656,-0.321363,1016.548523
426128,0.084841,-0.180708,-0.111722,0.926652041,-0.058512041,0.173641531,-0.192657,0.047386,-0.326437,1016.548523
426228,0.107581,-0.14861,-0.121276,0.9452,-0.069197143,0.154607143,-0.18558,0.048537,-0.331882,1016.548523
426328,0.134107,-0.152255,-0.131292,0.987035612,-0.076267143,0.1455,-0.180488,0.047751,-0.337929,1016.548523
426428,0.179479,-0.205287,-0.131765,1.028230408,-0.070842755,0.123999082,-0.175406,0.047438,-0.343451,1016.548523
426528,0.223647,-0.313005,-0.135828,1.063881224,-0.056481633,0.09023449,-0.172882,0.045004,-0.345576,1016.548523
426628,0.265547,-0.433031,-0.14473,1.097106531,-0.039290408,0.064793265,-0.170397,0.041975,-0.345727,1016.548523
426728,0.297005,-0.490281,-0.161495,1.11982602,-0.021529082,0.074783367,-0.16838,0.040023,-0.347328,1016.548523
426828,0.338333,-0.470189,-0.188296,1.119699388,-0.021262449,0.096784592,-0.169383,0.031095,-0.348285,1016.548523
426928,0.381902,-0.416728,-0.202544,1.127329898,-0.036093673,0.120840408,-0.162964,0.025391,-0.346064,1016.548523
427028,0.38455,-0.369702,-0.185394,1.177518673,-0.03498602,0.170610714,-0.156979,0.018867,-0.347392,1016.550232
427128,0.339024,-0.297801,-0.157343,1.28396898,-0.015052347,0.288323571,-0.148483,0.013847,-0.349643,1016.550232
427228,0.271165,-0.165103,-0.123605,1.392087449,0.016283673,0.411834388,-0.138521,0.002776,-0.351198,1016.550232
427328,0.20205,0.027454,-0.082707,1.458417449,0.057664592,0.474857755,-0.1207,-0.008212,-0.346728,1016.550232
427428,0.151307,0.280509,-0.053993,1.486818469,0.117749796,0.466141633,-0.101921,-0.024769,-0.341037,1016.550232
427528,0.091863,0.54957,-0.056724,1.467932449,0.146840204,0.353545816,-0.081768,-0.041164,-0.328824,1016.550232
427628,0.019362,0.761904,-0.069026,1.439650204,0.140050408,0.180249286,-0.064218,-0.058307,-0.310638,1016.550232
427728,-0.027101,0.861514,-0.061064,1.440333265,0.119158673,0.00565551,-0.05323,-0.077557,-0.288058,1016.550232
427828,-0.086575,0.871921,-0.033179,1.475869898,0.110517245,-0.164761837,-0.05279,-0.098353,-0.26106,1016.550232
427928,-0.154369,0.73116,0.041791,1.436038469,0.105361327,-0.320892755,-0.065873,-0.119127,-0.230067,1016.550232
428028,-0.183902,0.462719,0.141032,1.268308061,0.138332551,-0.429558878,-0.095374,-0.138597,-0.200028,1016.550232
428128,-0.170538,0.166518,0.182382,1.043186633,0.207764184,-0.496176837,-0.125195,-0.151645,-0.178681,1016.550232
428228,-0.144028,-0.134491,0.185893,0.908145816,0.222682755,-0.541365408,-0.154917,-0.161464,-0.162179,1016.550232
428328,-0.083937,-0.467642,0.166186,0.847755816,0.227615816,-0.531165306,-0.177461,-0.165408,-0.155892,1016.550232
428428,0.026568,-0.757569,0.10048,0.842811735,0.291294592,-0.432235714,-0.191896,-0.159199,-0.155591,1016.550232
428528,0.0925,-0.902543,-0.011252,0.885520204,0.350536122,-0.24742949,-0.193241,-0.153334,-0.16281,1016.550232
428628,0.080279,-0.83255,-0.071075,0.973574082,0.332765918,-0.024297857,-0.190495,-0.140316,-0.174669,1016.550232
428728,0.044027,-0.571081,-0.035102,1.102769082,0.290136633,0.110827347,-0.187762,-0.123858,-0.185351,1016.550232
428828,-0.046962,-0.279167,0.037571,1.189455408,0.254258469,0.069504286,-0.184009,-0.109337,-0.197633,1016.550232
428928,-0.173442,-0.097873,0.115341,1.19320949,0.221959592,-0.032575714,-0.184274,-0.087898,-0.207062,1016.550232
429028,-0.322842,-0.005249,0.169842,1.165481633,0.180108776,-0.084246122,-0.187042,-0.072896,-0.216823,1016.550232
429128,-0.464508,-0.002991,0.219426,1.119053265,0.113731735,-0.108362347,-0.19075,-0.052775,-0.228828,1016.550232
429228,-0.53127,-0.034713,0.254196,1.066818776,0.0544,-0.09024602,-0.202069,-0.0324,-0.233313,1016.550232
429328,-0.547636,-0.019676,0.254113,1.007641122,0.007595306,-0.049357143,-0.212915,-0.021024,-0.237756,1016.550232
429428,-0.520896,0.017992,0.238337,0.942357653,-0.026965816,-0.026656122,-0.223242,-0.008113,-0.243121,1016.550232
429528,-0.443911,0.038925,0.220193,0.878526429,-0.031422449,-0.031315204,-0.23116,8.10E-05,-0.244717,1016.550232
429628,-0.351601,0.016862,0.200814,0.828423878,-0.007340204,-0.048086939,-0.232567,0.007771,-0.248334,1016.550232
429728,-0.261068,-0.025216,0.178466,0.807477857,0.034078061,-0.048786633,-0.233479,0.01346,-0.252054,1016.550232
429828,-0.183389,-0.052178,0.156374,0.80909602,0.068086531,-0.035093673,-0.234365,0.018225,-0.257323,1016.550232
429928,-0.106986,-0.052008,0.137472,0.816011224,0.081040918,-0.021629388,-0.234814,0.024806,-0.258992,1016.550232
430028,-0.030204,-0.031003,0.127955,0.822333163,0.083604694,-0.008211327,-0.235725,0.030993,-0.262686,1016.550232
430128,0.04205,0.004977,0.122192,0.819547755,0.079058878,0.00634551,-0.237627,0.035227,-0.266982,1016.550232
430228,0.087814,0.029549,0.120193,0.807917449,0.072241122,0.021798163,-0.23956,0.037396,-0.26988,1016.546204
430328,0.100533,0.040475,0.121588,0.797017551,0.055026327,0.04261398,-0.23996,0.040136,-0.274751,1016.546204
430428,0.072843,0.053273,0.133117,0.783138163,0.045334286,0.050368163,-0.23895,0.043134,-0.275098,1016.546204
430528,0.043402,0.059464,0.142991,0.77273,0.040702857,0.049349082,-0.237403,0.041262,-0.278198,1016.546204
430628,0.034892,0.075466,0.149287,0.766741122,0.037446224,0.045075,-0.234826,0.042934,-0.282619,1016.546204
430728,0.049528,0.098864,0.154871,0.763712551,0.038913163,0.037098265,-0.232262,0.042589,-0.286642,1016.546204
430828,0.081089,0.117906,0.158607,0.766258776,0.037495612,0.029029592,-0.22523,0.044117,-0.289563,1016.546204
430928,0.11977,0.122653,0.164284,0.771626531,0.034214286,0.024811939,-0.219626,0.04088,-0.296736,1016.546204
431028,0.160744,0.106566,0.166784,0.775413776,0.038614694,0.026149286,-0.214545,0.039571,-0.302309,1016.546204
431128,0.20046,0.057569,0.159759,0.790870612,0.042101224,0.030490918,-0.20995,0.039789,-0.308305,1016.546204
431228,0.235341,0.002795,0.149396,0.809646837,0.058867857,0.04388,-0.206859,0.040006,-0.313802,1016.546204
431328,0.244893,-0.047015,0.140057,0.820597347,0.083561939,0.063640102,-0.205852,0.035555,-0.31503,1016.546204
431428,0.243799,-0.062315,0.134319,0.823866429,0.109652551,0.090938776,-0.202355,0.036022,-0.315503,1016.546204
431528,0.232685,-0.044573,0.125001,0.815310204,0.132679388,0.116296531,-0.2073,0.03074,-0.318283,1016.546204
431628,0.218581,-0.005911,0.114747,0.811454898,0.147851735,0.139198469,-0.203785,0.025301,-0.320561,1016.546204
431728,0.210626,0.05966,0.103125,0.819026429,0.152082551,0.162630714,-0.20722,0.023508,-0.323663,1016.546204
431828,0.208772,0.132249,0.094877,0.832260918,0.149571224,0.166437347,-0.200167,0.021123,-0.328285,1016.546204
431928,0.223558,0.193027,0.089571,0.852326735,0.138185102,0.151168571,-0.193655,0.02012,-0.330333,1016.546204
432028,0.237495,0.216897,0.088345,0.875189592,0.126292245,0.126639592,-0.184536,0.017896,-0.338954,1016.546204
432128,0.246945,0.207853,0.078003,0.908461429,0.125612551,0.12003898,-0.178454,0.014105,-0.345154,1016.546204
432228,0.251406,0.183936,0.06937,0.93277102,0.12145398,0.127986531,-0.172319,0.013921,-0.353673,1016.546204
432328,0.249512,0.16834,0.075212,0.960662041,0.122747755,0.152942143,-0.166735,0.015095,-0.359119,1016.546204
432428,0.231319,0.189144,0.089978,0.992556633,0.125687755,0.16140398,-0.162648,0.015297,-0.364616,1016.546204
432528,0.182616,0.226156,0.109077,1.019835306,0.12302449,0.144801633,-0.159045,0.018022,-0.370485,1016.546204
432628,0.117493,0.234688,0.132025,1.041136735,0.121230204,0.107120612,-0.155946,0.017267,-0.376533,1016.546204
432728,0.032808,0.20001,0.157539,1.066603673,0.136700714,0.075478776,-0.155365,0.016977,-0.381056,1016.546204
432828,-0.060925,0.136786,0.180549,1.101940102,0.17085551,0.071542551,-0.149261,0.020185,-0.387399,1016.546204
432928,-0.146537,0.089275,0.193898,1.146205408,0.203717143,0.115857143,-0.149116,0.024034,-0.394719,1016.546204
433028,-0.200337,0.104856,0.193937,1.190290816,0.212969592,0.196567143,-0.146464,0.025898,-0.403138,1016.546204
433128,-0.190049,0.167866,0.167965,1.233313163,0.184772857,0.286579796,-0.137381,0.029035,-0.408981,1016.546204
433228,-0.11691,0.275904,0.140156,1.283360816,0.123622959,0.371792551,-0.13227,0.028794,-0.416002,1016.546204
433328,-0.018283,0.433728,0.116949,1.356818265,0.05236551,0.403551327,-0.118257,0.02924,-0.419471,1016.546204
433428,0.074332,0.641876,0.094961,1.440067143,-0.036037449,0.373200408,-0.102826,0.023016,-0.41977,1016.546204
433528,0.146964,0.853978,0.11435,1.482052347,-0.122942551,0.299703673,-0.088571,0.014358,-0.410676,1016.546204
433628,0.198022,1.030666,0.154753,1.487585306,-0.140995612,0.19505,-0.072327,-0.000785,-0.402411,1016.546204
433728,0.221524,1.182885,0.211272,1.514737755,-0.131312959,0.119349388,-0.062738,-0.013318,-0.384,1016.546204
433828,0.217596,1.261251,0.274211,1.520065204,-0.072984082,0.051215408,-0.058697,-0.032883,-0.362947,1016.546204
433928,0.205292,1.112179,0.290562,1.427116531,0.050847347,-0.116612041,-0.060753,-0.051172,-0.335323,1016.546204
434028,0.142028,0.775622,0.206039,1.312021429,0.165815612,-0.272082551,-0.072127,-0.06596,-0.315046,1016.546204
434128,0.085795,0.432334,0.058937,1.19696102,0.161223776,-0.362025714,-0.092856,-0.07089,-0.299287,1016.546204
434228,0.029942,0.104856,-0.070849,1.069318163,0.075569694,-0.415822041,-0.10998,-0.077556,-0.290126,1016.546204
434328,-0.056618,-0.233686,-0.138737,0.948605306,0.011735714,-0.417987755,-0.130962,-0.074902,-0.286507,1016.546204
434428,-0.138127,-0.51247,-0.162745,0.909300306,-0.083510102,-0.310856122,-0.148393,-0.072632,-0.286411,1016.546204
434528,-0.125828,-0.636661,-0.153019,0.93325949,-0.171418367,-0.137649286,-0.161755,-0.070209,-0.290811,1016.546204
434628,0.003683,-0.582297,-0.136721,1.001218776,-0.236427143,-0.000739082,-0.17159,-0.066251,-0.297134,1016.546204
434728,0.17326,-0.369678,-0.109463,1.089766429,-0.273585714,0.092785,-0.180042,-0.067563,-0.298213,1016.546204
434828,0.276245,-0.13951,-0.080945,1.125620102,-0.247171429,0.078065816,-0.182923,-0.069717,-0.304338,1016.546204
434928,0.305174,-0.024654,-0.068316,1.114565612,-0.154903469,0.029879796,-0.190405,-0.070121,-0.303866,1016.546204
435028,0.30106,0.014401,-0.077896,1.101206531,-0.04536449,0.022767959,-0.19583,-0.070886,-0.306918,1016.546204
435128,0.263321,0.020099,-0.09927,1.067571429,0.056625918,0.019059898,-0.200265,-0.069698,-0.309367,1016.546204
435228,0.194983,-0.005949,-0.131578,1.007178265,0.138302143,0.010057857,-0.203196,-0.068012,-0.312291,1016.546204
435328,0.111297,-0.055172,-0.183187,0.94193051,0.194025102,0.000944388,-0.20996,-0.059423,-0.322382,1016.546204
435428,0.029956,-0.118052,-0.250571,0.88200398,0.217570408,0.003310816,-0.215281,-0.053969,-0.330127,1016.546204
435528,-0.04616,-0.166639,-0.310946,0.827638469,0.201736939,0.015299592,-0.221538,-0.040406,-0.339964,1016.546204
435628,-0.120764,-0.178728,-0.35087,0.777633571,0.162889184,0.029391122,-0.226807,-0.031344,-0.35003,1016.546204
435728,-0.194584,-0.166399,-0.355646,0.73023602,0.113441429,0.048177041,-0.229538,-0.016744,-0.361814,1016.546204
435828,-0.2597,-0.15327,-0.31312,0.689467041,0.065015,0.067775102,-0.231735,-0.002554,-0.375624,1016.546204
435928,-0.320013,-0.139963,-0.240508,0.680570918,0.032524592,0.090832857,-0.231929,0.012127,-0.389907,1016.546204
436028,-0.363568,-0.119123,-0.177124,0.71474949,0.014865816,0.105726224,-0.228528,0.025048,-0.410288,1016.546204
436128,-0.385673,-0.09657,-0.147644,0.766680816,0.01550949,0.099207551,-0.226198,0.042751,-0.425917,1016.546204
436228,-0.404196,-0.076847,-0.151595,0.819817041,0.016951633,0.085374796,-0.226305,0.059144,-0.444622,1016.546204
436328,-0.415017,-0.053486,-0.17157,0.850779286,0.008475306,0.07199,-0.220487,0.077788,-0.460199,1016.546204
436428,-0.434095,-0.033734,-0.193127,0.862912959,-0.00528602,0.057671224,-0.225263,0.089309,-0.469638,1016.546204
436528,-0.465922,-0.020332,-0.198109,0.859444184,-0.02312449,0.044325714,-0.231397,0.104182,-0.485922,1016.546204
436628,-0.500378,-0.022289,-0.185054,0.849795204,-0.040053265,0.036336122,-0.235296,0.115873,-0.488838,1016.546204
436728,-0.518747,-0.055403,-0.150703,0.839033265,-0.051215816,0.043791122,-0.245139,0.125762,-0.493856,1016.547974
436828,-0.524667,-0.098262,-0.106447,0.835277449,-0.062106327,0.056897245,-0.252006,0.134085,-0.49845,1016.547974
436928,-0.519424,-0.158353,-0.066103,0.839568469,-0.071489082,0.057804592,-0.258444,0.13974,-0.499672,1016.547974
437028,-0.509031,-0.218707,-0.033938,0.86420449,-0.08243551,0.069692653,-0.267859,0.146464,-0.501344,1016.547974
437128,-0.49089,-0.246753,-0.009434,0.892384184,-0.102456327,0.091178673,-0.272743,0.154233,-0.505462,1016.547974
437228,-0.470655,-0.228423,0.025276,0.906387245,-0.124534184,0.111973571,-0.280617,0.156095,-0.510387,1016.547974
437328,-0.447355,-0.202357,0.054367,0.90747602,-0.139502857,0.132269286,-0.28155,0.160739,-0.513157,1016.547974
437428,-0.417859,-0.183461,0.079021,0.902016327,-0.142279082,0.152287143,-0.284951,0.167464,-0.516827,1016.547974
437528,-0.370262,-0.198709,0.089849,0.892904184,-0.137076327,0.170388265,-0.288897,0.168621,-0.518776,1016.547974
437628,-0.300853,-0.221615,0.082052,0.879421531,-0.126587449,0.187523469,-0.291384,0.170653,-0.518675,1016.547974
437728,-0.211901,-0.240477,0.056146,0.864079388,-0.113897245,0.195177347,-0.286869,0.167689,-0.520826,1016.547974
437828,-0.119271,-0.22877,0.020495,0.856346837,-0.103708673,0.204475102,-0.287861,0.164739,-0.521478,1016.547974
437928,-0.041873,-0.176867,-0.013512,0.855512245,-0.103157653,0.206968469,-0.284311,0.163358,-0.525052,1016.547974
438028,0.026299,-0.10887,-0.046388,0.871983571,-0.10881051,0.202132245,-0.281318,0.155387,-0.526457,1016.547974
438128,0.073106,-0.039275,-0.075936,0.899602143,-0.118393673,0.198613571,-0.276864,0.149787,-0.525736,1016.547974
438228,0.115469,0.015613,-0.098461,0.932623163,-0.131282449,0.196903163,-0.268386,0.144719,-0.526987,1016.547974
438328,0.155351,0.033919,-0.105491,0.968437041,-0.129694796,0.192166122,-0.26225,0.139577,-0.536261,1016.547974
438428,0.187012,0.023337,-0.095794,1.020440612,-0.111763878,0.190062959,-0.25223,0.135601,-0.539959,1016.547974
438528,0.208017,0.00855,-0.08425,1.07258551,-0.081663061,0.185154388,-0.241171,0.12924,-0.546284,1016.547974
438628,0.239293,-0.001564,-0.077484,1.106159898,-0.060052755,0.17323102,-0.234621,0.124371,-0.551034,1016.547974
438728,0.285975,-0.000356,-0.086343,1.124209082,-0.054662959,0.164207347,-0.226592,0.120926,-0.554708,1016.547974
438828,0.346356,0.028294,-0.111397,1.137692041,-0.065619388,0.153631735,-0.21805,0.110071,-0.560262,1016.547974
438928,0.407418,0.073153,-0.145033,1.145922959,-0.083038367,0.136769388,-0.208048,0.106048,-0.562962,1016.547974
439028,0.435537,0.126751,-0.156725,1.178682041,-0.088402245,0.147069388,-0.200609,0.097909,-0.562366,1016.547974
439128,0.418509,0.209764,-0.138154,1.237419796,-0.070406735,0.227705204,-0.191162,0.088293,-0.562846,1016.547974
439228,0.371233,0.306235,-0.109363,1.313330612,-0.044713163,0.353309184,-0.178212,0.076676,-0.564426,1016.547974
439328,0.295188,0.375756,-0.072898,1.381196122,0.008121735,0.436238163,-0.159183,0.06523,-0.571501,1016.547974
439428,0.200998,0.453229,-0.047604,1.436765204,0.091380816,0.466774796,-0.134795,0.053881,-0.572053,1016.547974
439528,0.129454,0.60555,-0.052061,1.463248878,0.181931224,0.437705918,-0.110965,0.039407,-0.569758,1016.547974
439628,0.085047,0.836167,-0.090052,1.469660408,0.230882143,0.350266429,-0.087225,0.021726,-0.563117,1016.547974
439728,0.076803,1.015979,-0.147743,1.475707551,0.221477347,0.216271224,-0.063139,0.007615,-0.547777,1016.547974
439828,0.102357,1.070362,-0.186191,1.446422551,0.179286837,0.069371531,-0.046131,-0.013602,-0.527796,1016.547974
439928,0.122546,0.957539,-0.18255,1.346641327,0.081378776,-0.096147653,-0.032257,-0.033165,-0.499717,1016.547974
440028,0.129499,0.703251,-0.122313,1.21196449,-0.008418878,-0.222783878,-0.027295,-0.04798,-0.473911,1016.547974
440128,0.118828,0.403377,-0.048289,1.070091837,-0.051753571,-0.275137551,-0.028775,-0.06459,-0.450209,1016.547974
440228,0.118272,0.11483,0.011452,0.947945918,-0.041336429,-0.258553469,-0.021648,-0.076014,-0.433247,1016.547974
440328,0.133231,-0.112745,0.037864,0.872190816,0.022396327,-0.194083776,-0.01593,-0.086699,-0.420758,1016.547974
440428,0.154997,-0.272791,0.037383,0.824314796,0.118732449,-0.132437449,-0.006623,-0.097175,-0.413766,1016.547974
440528,0.138731,-0.393581,0.02441,0.802109592,0.216529082,-0.080035408,0.006788,-0.102942,-0.412542,1016.547974
440628,0.047244,-0.477824,0.025586,0.842751429,0.294099286,-0.020403469,0.025404,-0.103251,-0.422558,1016.547974
440728,-0.120007,-0.466523,0.061859,0.973747959,0.337531531,0.039719898,0.047107,-0.100377,-0.437418,1016.547974
440828,-0.286485,-0.336841,0.122845,1.096544184,0.349004082,0.055448265,0.061903,-0.091269,-0.454975,1016.547974
440928,-0.390606,-0.186524,0.177415,1.145134898,0.328079184,0.019675714,0.070616,-0.07837,-0.466333,1016.547974
441028,-0.432802,-0.114939,0.201935,1.151358571,0.269192653,-0.034016224,0.072839,-0.063423,-0.476591,1016.547974
441128,-0.464192,-0.120973,0.20259,1.123755102,0.18823602,-0.066940714,0.066495,-0.046614,-0.481252,1016.547974
441228,-0.468866,-0.1535,0.17865,1.09670398,0.087554388,-0.06441398,0.054127,-0.02983,-0.483417,1016.547974
441328,-0.422266,-0.175397,0.130929,1.067110306,-0.016073776,-0.056452449,0.039654,-0.013802,-0.479609,1016.547974
441428,-0.337247,-0.203758,0.07791,1.014788265,-0.082990408,-0.05413949,0.021702,0.001309,-0.476354,1016.547974
441528,-0.214342,-0.270512,0.045644,0.964575,-0.103288265,-0.050749082,0.001613,0.008641,-0.466483,1016.547974
441628,-0.063931,-0.352994,0.033358,0.922031735,-0.094202653,-0.025893469,-0.018379,0.017708,-0.461534,1016.549683
441728,0.07934,-0.425877,0.030077,0.894114184,-0.069235204,0.012277857,-0.034892,0.022735,-0.456786,1016.549683
441828,0.178407,-0.467819,0.040775,0.87855,-0.03977551,0.057245816,-0.050439,0.026179,-0.450616,1016.549683
441928,0.232827,-0.462487,0.055737,0.86398898,-0.003894694,0.094947755,-0.064498,0.026609,-0.444597,1016.549683
442028,0.23493,-0.421106,0.079343,0.840047143,0.032117143,0.117769796,-0.07361,0.027861,-0.436527,1016.549683
442128,0.199942,-0.362453,0.107581,0.810982449,0.06762,0.124093571,-0.078804,0.022926,-0.425761,1016.549683
442228,0.147932,-0.287257,0.130208,0.785142041,0.096906122,0.119318163,-0.08545,0.015644,-0.417622,1016.549683
442328,0.098765,-0.200428,0.148965,0.755963673,0.120612347,0.112092857,-0.086094,0.011803,-0.410303,1016.549683
442428,0.060211,-0.122077,0.152497,0.738691429,0.133631224,0.100567347,-0.086788,0.005849,-0.400586,1016.549683
442528,0.033817,-0.062966,0.147826,0.735140102,0.13055602,0.083059796,-0.0839,0.001575,-0.395791,1016.549683
442628,0.023313,-0.038102,0.138417,0.744210102,0.110931531,0.061096939,-0.077481,-0.004129,-0.393569,1016.549683
442728,0.02916,-0.062233,0.130771,0.754038061,0.085328878,0.047803367,-0.077511,-0.005696,-0.392146,1016.549683
442828,0.040867,-0.120161,0.126411,0.771268776,0.057958571,0.053576429,-0.076061,-0.009802,-0.39035,1016.549683
442928,0.06452,-0.176244,0.120774,0.801029286,0.034480816,0.068258878,-0.078106,-0.013378,-0.388029,1016.549683
443028,0.098176,-0.218509,0.11598,0.832916531,0.018793571,0.082242551,-0.082172,-0.012037,-0.383456,1016.549683
443128,0.130965,-0.237333,0.109168,0.860381122,0.022083163,0.090728265,-0.085842,-0.015429,-0.374113,1016.549683
443228,0.166212,-0.238429,0.092361,0.872496837,0.039185204,0.092536327,-0.097466,-0.015681,-0.36512,1016.549683
443328,0.197623,-0.228096,0.066371,0.870182245,0.068363061,0.093518571,-0.102075,-0.018912,-0.358776,1016.549683
443428,0.224268,-0.208932,0.041956,0.861621531,0.08914051,0.095401327,-0.113729,-0.020232,-0.348335,1016.549683
443528,0.251671,-0.186927,0.02282,0.85230898,0.102113469,0.106897959,-0.11883,-0.024926,-0.342567,1016.549683
443628,0.265057,-0.176901,0.015419,0.846501429,0.110902653,0.129210408,-0.12237,-0.023521,-0.339494,1016.549683
443728,0.269224,-0.17872,0.016497,0.851835918,0.11807949,0.162458878,-0.125871,-0.025981,-0.339122,1016.549683
443828,0.256371,-0.175786,0.020974,0.867892959,0.121637755,0.20361551,-0.125426,-0.024638,-0.336046,1016.549683
443928,0.232886,-0.142459,0.030308,0.886577449,0.117885,0.23531449,-0.125457,-0.026704,-0.334649,1016.549683
444028,0.201414,-0.057534,0.040635,0.907246735,0.106418163,0.257175102,-0.119505,-0.030334,-0.333825,1016.549683
444128,0.177184,0.071836,0.055666,0.92081949,0.093147143,0.253380612,-0.112029,-0.033418,-0.334475,1016.549683
444228,0.16319,0.196887,0.064244,0.913117755,0.08481102,0.21653898,-0.10459,-0.041557,-0.333879,1016.549683
444328,0.15386,0.26354,0.065399,0.894137959,0.079363061,0.169896327,-0.093109,-0.043659,-0.335477,1016.549683
444428,0.144948,0.280323,0.070261,0.878932041,0.074661837,0.147857653,-0.081121,-0.051202,-0.338353,1016.549683
444528,0.137678,0.277875,0.084169,0.887113367,0.076979694,0.138091429,-0.068129,-0.054774,-0.341026,1016.549683
444628,0.131523,0.268049,0.104569,0.923910204,0.092593878,0.143263878,-0.058587,-0.058195,-0.345699,1016.549683
444728,0.102862,0.250444,0.129555,0.97946,0.109097653,0.152167143,-0.047516,-0.063038,-0.352448,1016.549683
444828,0.065246,0.224134,0.154294,1.042578673,0.127380612,0.147037653,-0.037444,-0.063904,-0.358493,1016.549683
444928,0.015525,0.180725,0.166865,1.094845102,0.155472347,0.120915714,-0.029921,-0.066369,-0.361616,1016.549683
445028,-0.071465,0.144272,0.160177,1.137817857,0.181595816,0.107775816,-0.026376,-0.064785,-0.364538,1016.549683
445128,-0.169213,0.143995,0.132187,1.154043469,0.191340612,0.134319082,-0.023367,-0.064286,-0.365511,1016.549683
445228,-0.241077,0.170978,0.098682,1.172485306,0.174696939,0.203042245,-0.019844,-0.059287,-0.366755,1016.549683
445328,-0.267895,0.206109,0.066325,1.20330102,0.140831429,0.291313061,-0.017828,-0.056779,-0.367627,1016.549683
445428,-0.227023,0.260333,0.046418,1.250798469,0.098505816,0.389425306,-0.012786,-0.053725,-0.370472,1016.549683
445528,-0.158332,0.399232,0.035548,1.344584694,0.050176224,0.447225,-0.000797,-0.050354,-0.37179,1016.549683
445628,-0.096126,0.62991,0.040543,1.425019898,-0.014006122,0.447257041,0.013588,-0.053219,-0.368914,1016.549683
445728,-0.022398,0.866634,0.056235,1.427247551,-0.066246122,0.386044184,0.030907,-0.061234,-0.363792,1016.549683
445828,0.021745,1.0311,0.069478,1.412745816,-0.051666837,0.253363367,0.05265,-0.065503,-0.354966,1016.549683
445928,-0.024385,1.105234,0.081705,1.418441224,0.013224082,0.107318163,0.071771,-0.076024,-0.339949,1016.549683
446028,-0.130647,1.015263,0.074482,1.413631224,0.095005204,-0.023048673,0.084345,-0.08514,-0.320859,1016.549683
446128,-0.25627,0.738851,0.028963,1.359393163,0.170496531,-0.167061837,0.087541,-0.087437,-0.30544,1016.549683
446228,-0.374366,0.369927,-0.049811,1.25217602,0.181882041,-0.296789184,0.082731,-0.088707,-0.287974,1016.549683
446328,-0.43437,-0.012061,-0.135137,1.150019796,0.111258673,-0.340177347,0.066123,-0.07996,-0.277525,1016.549683
446428,-0.40366,-0.345019,-0.191133,1.069381735,0.02232898,-0.33378898,0.045664,-0.068819,-0.273974,1016.551392
446528,-0.344789,-0.572655,-0.209769,1.026468265,-0.059201939,-0.276552959,0.027241,-0.053628,-0.272218,1016.551392
446628,-0.240878,-0.676,-0.220317,1.02250949,-0.158000408,-0.174856633,0.01041,-0.035729,-0.275333,1016.551392
446728,-0.080265,-0.640498,-0.222033,1.06711898,-0.264918673,-0.046035204,-0.001957,-0.023903,-0.278251,1016.551392
446828,0.076815,-0.475221,-0.214236,1.124120102,-0.318701837,0.035598163,-0.012732,-0.014328,-0.286793,1016.551392
446928,0.179246,-0.238802,-0.179877,1.170128163,-0.295859796,0.090275102,-0.021172,-0.008665,-0.287516,1016.551392
447028,0.232522,-0.054891,-0.142167,1.176619286,-0.200187245,0.093384082,-0.024651,-0.009582,-0.288068,1016.551392
447128,0.246617,0.017321,-0.116581,1.16378551,-0.084921939,0.055305102,-0.033675,-0.010581,-0.285123,1016.551392
447228,0.219883,0.009068,-0.118819,1.149841327,0.032267857,0.020277245,-0.044742,-0.014159,-0.279806,1016.551392
447328,0.142643,-0.045114,-0.140326,1.110473878,0.139573163,0.005290918,-0.062294,-0.017161,-0.273966,1016.551392
447428,0.047432,-0.136611,-0.177225,1.041672653,0.214062551,-0.008589286,-0.078347,-0.018193,-0.268024,1016.551392
447528,-0.036594,-0.205732,-0.228313,0.970347041,0.235730204,-0.011384898,-0.097324,-0.014052,-0.264828,1016.551392
447628,-0.086442,-0.244892,-0.287449,0.899442041,0.20737051,0.002328571,-0.117284,-0.007379,-0.262005,1016.551392
447728,-0.114482,-0.275856,-0.332887,0.826764796,0.152558776,0.025557347,-0.135206,-0.001116,-0.261706,1016.551392
447828,-0.122165,-0.313179,-0.358742,0.760675,0.089633673,0.052697551,-0.14658,0.008701,-0.264725,1016.551392
447928,-0.116725,-0.334284,-0.361004,0.712140102,0.034998776,0.078843469,-0.159451,0.018043,-0.267771,1016.551392
448028,-0.116012,-0.333656,-0.349663,0.685115408,-0.009342755,0.092645918,-0.166739,0.027563,-0.276312,1016.553101
448128,-0.116744,-0.306645,-0.318938,0.672344286,-0.040718163,0.09604602,-0.170577,0.036932,-0.282853,1016.553101
448228,-0.114064,-0.258462,-0.279912,0.679943469,-0.056701837,0.098145,-0.16945,0.043208,-0.289046,1016.553101
448328,-0.100974,-0.193054,-0.236834,0.703050408,-0.057343673,0.103346122,-0.173899,0.04634,-0.290394,1016.553101
448428,-0.080589,-0.116802,-0.198782,0.731701837,-0.046259388,0.110925204,-0.173686,0.051853,-0.301136,1016.553101
448528,-0.058927,-0.041223,-0.175271,0.756573469,-0.031584184,0.106678367,-0.17666,0.054914,-0.301484,1016.553101
448628,-0.036385,0.016176,-0.158503,0.771016224,-0.023394388,0.093625204,-0.174571,0.057116,-0.30638,1016.553101
448728,-0.036457,0.058035,-0.145538,0.78723551,-0.013458776,0.074953673,-0.179482,0.059855,-0.309753,1016.553101
448828,-0.046456,0.065782,-0.136067,0.790488776,-0.007603878,0.055911224,-0.181396,0.06257,-0.313625,1016.553101
448928,-0.068618,0.029169,-0.124592,0.79020949,-0.003187755,0.038197143,-0.185861,0.062191,-0.314651,1016.553101
449028,-0.091454,-0.044697,-0.110291,0.794573367,0.001732959,0.03994551,-0.188274,0.069374,-0.317795,1016.553101
