PacketCounter,SampleTimeFine,Acc_X,Acc_Y,Acc_Z,Gyr_X,Gyr_Y,Gyr_Z,Mag_X,Mag_Y,Mag_Z,Roll,Pitch,Yaw
08187,1067348,9.747344,-0.326722,0.503686,0.022749,0.029391,-0.019507,-0.287678,-0.330585,0.392221,-21.733306,-85.755457,21.679232
08188,1067448,9.802521,-0.283037,0.560855,0.010862,0.024852,-0.016080,-0.287245,-0.335720,0.394966,-21.529277,-85.746161,21.480397
08189,1067548,9.827282,-0.207611,0.635063,0.012785,0.024580,-0.014061,-0.285749,-0.335245,0.394992,-21.340234,-85.736539,21.297687
08190,1067648,9.812812,-0.242660,0.644398,0.005205,0.034987,-0.017324,-0.282832,-0.338949,0.398314,-21.104298,-85.721989,21.063593
08191,1067748,9.843354,-0.325412,0.606270,-0.005907,0.050000,-0.022143,-0.285893,-0.338098,0.402362,-20.801285,-85.700313,20.755839
08192,1067848,9.805256,-0.300846,0.541687,-0.009136,0.065941,-0.026683,-0.286411,-0.338636,0.403336,-20.428801,-85.670874,20.376545
08193,1067948,9.844912,-0.350623,0.486462,-0.005294,0.070151,-0.029100,-0.287029,-0.343401,0.409105,-20.031387,-85.639467,19.974435
08194,1068048,9.839254,-0.312370,0.484664,0.009657,0.071920,-0.034066,-0.287581,-0.347998,0.411376,-19.591908,-85.607855,19.538703
08195,1068148,9.860927,-0.247546,0.526916,0.019468,0.079766,-0.038459,-0.291173,-0.349703,0.416796,-19.103379,-85.572574,19.059386
08196,1068248,9.854117,-0.217250,0.563151,0.032684,0.084927,-0.045753,-0.294245,-0.354332,0.420565,-18.552188,-85.535517,18.524781
08197,1068348,9.843374,-0.175649,0.566294,0.040101,0.083853,-0.051721,-0.296885,-0.360134,0.427782,-17.966856,-85.499712,17.960158
08198,1068448,9.847618,-0.195101,0.629112,0.044970,0.072271,-0.055535,-0.301463,-0.361798,0.432702,-17.386603,-85.470452,17.403397
08199,1068548,9.840814,-0.244344,0.682250,0.043792,0.069104,-0.058249,-0.301117,-0.369143,0.439844,-16.802310,-85.442942,16.841881
08200,1068648,9.781555,-0.275460,0.690951,0.033114,0.058462,-0.057437,-0.302257,-0.371481,0.447239,-16.257947,-85.420711,16.314262
08201,1068748,9.779909,-0.326056,0.709204,0.020224,0.050604,-0.056050,-0.303837,-0.378127,0.450907,-15.750916,-85.402205,15.816669
08202,1068848,9.757484,-0.263617,0.725520,0.013023,0.046316,-0.051120,-0.304982,-0.383455,0.458149,-15.293864,-85.384978,15.365067
08203,1068948,9.756943,-0.185904,0.715238,0.006416,0.043861,-0.048574,-0.308116,-0.387256,0.465468,-14.865851,-85.368453,14.938784
08204,1069048,9.794575,-0.062209,0.739280,0.006727,0.038724,-0.055497,-0.310237,-0.391523,0.471761,-14.402435,-85.355514,14.477147
08205,1069148,9.838518,-0.002242,0.760002,0.013090,0.037447,-0.063682,-0.312885,-0.396353,0.479529,-13.884188,-85.344113,13.964143
08206,1069248,9.863816,-0.014263,0.761748,0.012674,0.050864,-0.076013,-0.316033,-0.397712,0.487974,-13.262855,-85.326489,13.347454
08207,1069348,9.839183,-0.056363,0.700949,0.014333,0.060579,-0.089103,-0.318649,-0.400476,0.494344,-12.541329,-85.304530,12.631166
08208,1069448,9.788462,-0.227643,0.643775,0.018402,0.061742,-0.101204,-0.324301,-0.408770,0.502432,-11.740423,-85.282608,11.837540
08209,1069548,9.701786,-0.404269,0.690620,0.023531,0.041007,-0.088757,-0.328426,-0.409069,0.509928,-11.056109,-85.270084,11.163833
08210,1069648,9.627817,-0.304040,0.751817,0.018713,0.018724,-0.079589,-0.328066,-0.413898,0.516696,-10.468509,-85.268506,10.584395
08211,1069748,9.645461,-0.204841,0.824635,0.010667,-0.001609,-0.073533,-0.336236,-0.422225,0.526284,-9.951585,-85.277318,10.071251
08212,1069848,9.711942,-0.130056,0.903840,0.005529,-0.023253,-0.070706,-0.336431,-0.427190,0.536051,-9.479859,-85.297713,9.600520
08213,1069948,9.848345,-0.066889,0.913908,0.015652,-0.019308,-0.074318,-0.337574,-0.432019,0.543319,-8.968966,-85.315874,9.096323
08214,1070048,9.854810,-0.038699,0.908938,0.041779,-0.002544,-0.080990,-0.337234,-0.437395,0.551062,-8.375635,-85.324716,8.524443
08215,1070148,9.704986,-0.095692,0.864047,0.049154,-0.008105,-0.090885,-0.335894,-0.440794,0.558907,-7.712352,-85.336993,7.886628
08216,1070248,9.718280,-0.259898,0.805612,0.044335,-0.020923,-0.089469,-0.336098,-0.446282,0.569149,-7.069570,-85.355855,7.266628
08217,1070348,9.703729,-0.364575,0.825513,0.036733,-0.029643,-0.093986,-0.334745,-0.452621,0.575842,-6.401288,-85.379405,6.616698
08218,1070448,9.631928,-0.444744,0.854855,0.048213,-0.040882,-0.087836,-0.334458,-0.456647,0.586660,-5.771552,-85.408386,6.012072
08219,1070548,9.621638,-0.384920,0.918386,0.062547,-0.069855,-0.076805,-0.334208,-0.465727,0.598723,-5.223780,-85.452780,5.497951
08220,1070648,9.668263,-0.297499,0.916953,0.081149,-0.091391,-0.074645,-0.332957,-0.472331,0.610914,-4.683479,-85.508965,5.002060
08221,1070748,9.755792,-0.141846,0.901943,0.087434,-0.099796,-0.078797,-0.335136,-0.478736,0.620105,-4.100379,-85.569745,4.466897
08222,1070848,9.828739,0.005100,0.836196,0.100062,-0.099391,-0.086378,-0.332446,-0.485010,0.635320,-3.437555,-85.630122,3.859076
08223,1070948,9.906132,0.050458,0.793739,0.107717,-0.097646,-0.103906,-0.334131,-0.487959,0.645189,-2.618839,-85.689423,3.099358
08224,1071048,9.825739,0.151164,0.835012,0.109637,-0.098597,-0.120242,-0.332781,-0.495794,0.651805,-1.651472,-85.748713,2.191735
08225,1071148,9.743520,0.138292,0.849639,0.106778,-0.102679,-0.125552,-0.335523,-0.501861,0.664520,-0.618309,-85.809207,1.216564
08226,1071248,9.720230,0.021958,0.819150,0.097507,-0.114188,-0.123956,-0.336240,-0.505396,0.675863,0.426575,-85.874980,0.224397
08227,1071348,9.687855,-0.085358,0.870349,0.093287,-0.120429,-0.121313,-0.338378,-0.508715,0.683207,1.481596,-85.943020,-0.780268
08228,1071448,9.673941,-0.107341,0.902373,0.100403,-0.118708,-0.115452,-0.338650,-0.515867,0.696872,2.526726,-86.008861,-1.770838
08229,1071548,9.689069,-0.123256,0.862309,0.114465,-0.120440,-0.117495,-0.344895,-0.520432,0.710661,3.631620,-86.074310,-2.813151
08230,1071648,9.672421,-0.124543,0.851005,0.128251,-0.119540,-0.122167,-0.343607,-0.526940,0.720852,4.819272,-86.137591,-3.930408
08231,1071748,9.644846,-0.114576,0.802362,0.139117,-0.119627,-0.127224,-0.347835,-0.532959,0.733067,6.094450,-86.198997,-5.129059
08232,1071848,9.632483,-0.082861,0.794748,0.140270,-0.113570,-0.128368,-0.350150,-0.542691,0.749102,7.413344,-86.255048,-6.370769
08233,1071948,9.694819,0.053754,0.718336,0.130123,-0.110906,-0.131519,-0.346868,-0.548234,0.759345,8.788645,-86.307395,-7.674752
08234,1072048,9.759322,0.198969,0.720433,0.114099,-0.102693,-0.128044,-0.346116,-0.555329,0.771510,10.148714,-86.353391,-8.972600
08235,1072148,9.783961,0.211734,0.693156,0.087235,-0.096812,-0.128192,-0.349787,-0.560215,0.780777,11.517198,-86.394069,-10.294241
08236,1072248,9.807283,0.216040,0.597569,0.076402,-0.090322,-0.131759,-0.347492,-0.565719,0.790520,12.928030,-86.428640,-11.664483
08237,1072348,9.760778,0.206255,0.706745,0.071109,-0.092929,-0.120981,-0.352180,-0.571634,0.800735,14.271334,-86.464042,-12.970050
08238,1072448,9.760163,0.196127,0.690199,0.070744,-0.094837,-0.109015,-0.357326,-0.575452,0.809052,15.537335,-86.500408,-14.198327
08239,1072548,9.770101,0.141340,0.659856,0.068141,-0.095627,-0.105666,-0.359012,-0.578899,0.818896,16.799214,-86.536070,-15.423920
08240,1072648,9.735443,0.196140,0.679008,0.062587,-0.106315,-0.102971,-0.358694,-0.586316,0.827537,18.090364,-86.576369,-16.681974
08241,1072748,9.725133,0.306835,0.693699,0.057879,-0.111162,-0.095795,-0.359842,-0.588180,0.835457,19.358503,-86.618915,-17.919622
08242,1072848,9.706685,0.389294,0.687298,0.063119,-0.102192,-0.091753,-0.359475,-0.594480,0.841650,20.592941,-86.655802,-19.120455
08243,1072948,9.698071,0.400816,0.630734,0.059145,-0.083540,-0.090019,-0.358088,-0.597757,0.846996,21.767295,-86.681591,-20.263347
08244,1073048,9.718157,0.410877,0.573343,0.050592,-0.077606,-0.085409,-0.355167,-0.598970,0.850444,22.889242,-86.703898,-21.358628
08245,1073148,9.786611,0.392073,0.566607,0.039686,-0.073585,-0.080508,-0.350714,-0.600608,0.851869,23.958491,-86.723993,-22.407365
08246,1073248,9.797712,0.459872,0.573035,0.026198,-0.075629,-0.073617,-0.344270,-0.602776,0.853269,24.978584,-86.745686,-23.414587
08247,1073348,9.783738,0.488124,0.581044,0.017034,-0.083712,-0.066430,-0.333267,-0.598868,0.851476,25.977183,-86.772313,-24.405521
08248,1073448,9.802428,0.522489,0.577224,0.004219,-0.089867,-0.064708,-0.324331,-0.600078,0.852928,26.997675,-86.801542,-25.425712
08249,1073548,9.802350,0.550964,0.580221,-0.015102,-0.093154,-0.059088,-0.303258,-0.593572,0.845767,27.990282,-86.832912,-26.429038
08250,1073648,9.796944,0.492076,0.560580,-0.042155,-0.089870,-0.055923,-0.282681,-0.590522,0.837929,28.941486,-86.862539,-27.406396
08251,1073748,9.771495,0.535362,0.478995,-0.060910,-0.088226,-0.046419,-0.260593,-0.582987,0.829820,29.804514,-86.893158,-28.306186
08252,1073848,9.773095,0.525412,0.408011,-0.077951,-0.091653,-0.039453,-0.247915,-0.576652,0.818633,30.629957,-86.926757,-29.178097
08253,1073948,9.783274,0.490387,0.390906,-0.099872,-0.094049,-0.031836,-0.240303,-0.565994,0.812672,31.404834,-86.963120,-30.011925
08254,1074048,9.743027,0.443573,0.425407,-0.113276,-0.093794,-0.027019,-0.236704,-0.560304,0.807454,32.145369,-87.000221,-30.819032
08255,1074148,9.737192,0.384629,0.422040,-0.119708,-0.088266,-0.023710,-0.242486,-0.549289,0.798490,32.837514,-87.035133,-31.581351
08256,1074248,9.742537,0.288457,0.422425,-0.122551,-0.088645,-0.021260,-0.246316,-0.539896,0.791449,33.524731,-87.070518,-32.340344
08257,1074348,9.776753,0.196537,0.423252,-0.120892,-0.094134,-0.022755,-0.253222,-0.527708,0.789557,34.279483,-87.107543,-33.165982
08258,1074448,9.848093,0.144467,0.483039,-0.118758,-0.105053,-0.024564,-0.258015,-0.515736,0.781143,35.144935,-87.148527,-34.101204
08259,1074548,9.908747,0.091923,0.535363,-0.118138,-0.112968,-0.028695,-0.260980,-0.507693,0.781049,36.130035,-87.191058,-35.155822
08260,1074648,9.950013,0.139469,0.545215,-0.106067,-0.107514,-0.036765,-0.261336,-0.505829,0.773628,37.190054,-87.227385,-36.278482
08261,1074748,9.899213,0.222158,0.461358,-0.091727,-0.093566,-0.043789,-0.258336,-0.499400,0.773959,38.249376,-87.253911,-37.392186
08262,1074848,9.834764,0.235784,0.350372,-0.078869,-0.090159,-0.051320,-0.260278,-0.491798,0.772341,39.380951,-87.275184,-38.570828
08263,1074948,9.839220,0.253754,0.362056,-0.073395,-0.098944,-0.057226,-0.252641,-0.488019,0.764024,40.657140,-87.296952,-39.891086
08264,1075048,9.908503,0.274416,0.431576,-0.077632,-0.104342,-0.066005,-0.244124,-0.486539,0.761604,42.075136,-87.316242,-41.355714
08265,1075148,9.876896,0.288630,0.576527,-0.093060,-0.112512,-0.064982,-0.236620,-0.484094,0.760234,43.564286,-87.337608,-42.900392
08266,1075248,9.888542,0.362397,0.652367,-0.113851,-0.120484,-0.060607,-0.232621,-0.481144,0.759887,45.096626,-87.362081,-44.500195
08267,1075348,9.914641,0.466701,0.609896,-0.129008,-0.116129,-0.053849,-0.226526,-0.477960,0.754044,46.550359,-87.385648,-46.029965
08268,1075448,9.841641,0.518375,0.425193,-0.137127,-0.099922,-0.047375,-0.225522,-0.478949,0.753494,47.818518,-87.403947,-47.378602
08269,1075548,9.719987,0.513421,0.267856,-0.143867,-0.089404,-0.046892,-0.230978,-0.475824,0.752645,48.995725,-87.417138,-48.640050
08270,1075648,9.713744,0.604703,0.208785,-0.148802,-0.084915,-0.053963,-0.235391,-0.473093,0.749272,50.195890,-87.424388,-49.927309
08271,1075748,9.692742,0.401648,0.244420,-0.147524,-0.075847,-0.052129,-0.240861,-0.472982,0.748771,51.298246,-87.427999,-51.115925
08272,1075848,9.775024,0.348642,0.294730,-0.146819,-0.071988,-0.041213,-0.245250,-0.466715,0.744576,52.279579,-87.434186,-52.182990
08273,1075948,9.830296,0.288576,0.306644,-0.150332,-0.076017,-0.036374,-0.249191,-0.462570,0.742779,53.267842,-87.443157,-53.258998
08274,1076048,9.844476,0.260382,0.366973,-0.151254,-0.087812,-0.028667,-0.246639,-0.459974,0.739907,54.328045,-87.458824,-54.407533
08275,1076148,9.872962,0.325035,0.360940,-0.152114,-0.093657,-0.027327,-0.253015,-0.455645,0.735111,55.453667,-87.476069,-55.622026
08276,1076248,9.830420,0.377392,0.322312,-0.153300,-0.098635,-0.032103,-0.250520,-0.453193,0.735239,56.682908,-87.491528,-56.940903
08277,1076348,9.861051,0.321033,0.288641,-0.160206,-0.102051,-0.034038,-0.252948,-0.449023,0.732442,57.974903,-87.505835,-58.326537
08278,1076448,9.762913,0.452290,0.270650,-0.164427,-0.095690,-0.037036,-0.257821,-0.445690,0.727095,59.227143,-87.515429,-59.674790
08279,1076548,9.768504,0.523871,0.204791,-0.156299,-0.090222,-0.053965,-0.258808,-0.445650,0.726595,60.540572,-87.513744,-61.079630
08280,1076648,9.814323,0.242238,0.256779,-0.152939,-0.084848,-0.051258,-0.266273,-0.441545,0.726796,61.773977,-87.510582,-62.402443
08281,1076748,9.821908,0.190534,0.281245,-0.156164,-0.081164,-0.041449,-0.267733,-0.437962,0.725474,62.899735,-87.510242,-63.619352
08282,1076848,9.836393,0.264541,0.255325,-0.158275,-0.071457,-0.033782,-0.270210,-0.435407,0.725100,63.864193,-87.510377,-64.676018
08283,1076948,9.821036,0.277989,0.230152,-0.150015,-0.071096,-0.032302,-0.271673,-0.433318,0.723702,64.820561,-87.510421,-65.719847
08284,1077048,9.833997,0.313580,0.264708,-0.143569,-0.073347,-0.032272,-0.273111,-0.427694,0.721482,65.807193,-87.510253,-66.790269
08285,1077148,9.856160,0.334159,0.245868,-0.135722,-0.076338,-0.027554,-0.272101,-0.425194,0.721110,66.809607,-87.512443,-67.871985
08286,1077248,9.855619,0.305392,0.239588,-0.140599,-0.073878,-0.025145,-0.275504,-0.419964,0.717364,67.768612,-87.514561,-68.913043
08287,1077348,9.879301,0.279285,0.238778,-0.136989,-0.069840,-0.023169,-0.277518,-0.416019,0.719066,68.671876,-87.516141,-69.896233
08288,1077448,9.874323,0.276557,0.233943,-0.129540,-0.062278,-0.025007,-0.277391,-0.412716,0.712721,69.495175,-87.514552,-70.795107
08289,1077548,9.773155,0.330049,0.194271,-0.123256,-0.057539,-0.025649,-0.278400,-0.404303,0.714652,70.264777,-87.511144,-71.636629
08290,1077648,9.735908,0.435037,0.153823,-0.128054,-0.064092,-0.027643,-0.280818,-0.399611,0.711381,71.119394,-87.507382,-72.566004
08291,1077748,9.702787,0.570024,0.171732,-0.136037,-0.072249,-0.029250,-0.280725,-0.394412,0.707137,72.075066,-87.503581,-73.601114
08292,1077848,9.726423,0.682496,0.157589,-0.144779,-0.075334,-0.031651,-0.278101,-0.387163,0.700996,73.070345,-87.498223,-74.680893
08293,1077948,9.732294,0.722227,0.126473,-0.155859,-0.079824,-0.034215,-0.276018,-0.382992,0.696702,74.120254,-87.491334,-75.821723
08294,1078048,9.734422,0.776813,0.177777,-0.158149,-0.086562,-0.039978,-0.271873,-0.376193,0.689036,75.266528,-87.481316,-77.060338
08295,1078148,9.893558,0.630544,0.217540,-0.157269,-0.083348,-0.054557,-0.264239,-0.368951,0.681397,76.407095,-87.461660,-78.292754
08296,1078248,9.930763,0.403947,0.261028,-0.148661,-0.067930,-0.057356,-0.263083,-0.362603,0.673706,77.348716,-87.437453,-79.321107
08297,1078348,9.914629,0.295182,0.247241,-0.143774,-0.053769,-0.051028,-0.257383,-0.358150,0.662415,78.082116,-87.414400,-80.138239
08298,1078448,9.830581,0.316366,0.207170,-0.142160,-0.045021,-0.045394,-0.251682,-0.348241,0.651904,78.680817,-87.393079,-80.819616
08299,1078548,9.795527,0.373717,0.144078,-0.148983,-0.036046,-0.040573,-0.240505,-0.340411,0.641293,79.143827,-87.373197,-81.369085
08300,1078648,9.711895,0.372304,0.063947,-0.162410,-0.030205,-0.038435,-0.232794,-0.335942,0.629003,79.515581,-87.353720,-81.834911
08301,1078748,9.672039,0.440041,0.001920,-0.179679,-0.032541,-0.030202,-0.227566,-0.327447,0.616916,79.882000,-87.338987,-82.305312
08302,1078848,9.724505,0.552509,0.022239,-0.196492,-0.037865,-0.022741,-0.214802,-0.319899,0.601282,80.283253,-87.328845,-82.820240
08303,1078948,9.784522,0.613892,0.032202,-0.204580,-0.046140,-0.015199,-0.203074,-0.313427,0.587596,80.761677,-87.323558,-83.417072
08304,1079048,9.796949,0.664772,0.074545,-0.208660,-0.058608,-0.011617,-0.192755,-0.305719,0.569461,81.379931,-87.321136,-84.156235
08305,1079148,9.823592,0.638975,0.155808,-0.208358,-0.070788,-0.015018,-0.179484,-0.298155,0.553328,82.150287,-87.317363,-85.047498
08306,1079248,9.855137,0.517302,0.185705,-0.203511,-0.065338,-0.022238,-0.171705,-0.292520,0.537590,82.865693,-87.308540,-85.880975
08307,1079348,9.903638,0.415055,0.206495,-0.187070,-0.044889,-0.026036,-0.163449,-0.287939,0.522802,83.343801,-87.295745,-86.467464
08308,1079448,9.769837,0.345915,0.127851,-0.160975,-0.026086,-0.028222,-0.155659,-0.280785,0.506641,83.609053,-87.280308,-86.825893
08309,1079548,9.659567,0.315957,0.078418,-0.142524,-0.037426,-0.027073,-0.147915,-0.273753,0.492979,84.015171,-87.266131,-87.314765
08310,1079648,9.728647,0.368971,0.133753,-0.130672,-0.054571,-0.029523,-0.146084,-0.266955,0.475791,84.629866,-87.251326,-88.005659
08311,1079748,9.802796,0.467154,0.215219,-0.122120,-0.055825,-0.032914,-0.140389,-0.260533,0.465102,85.260436,-87.234291,-88.707544
08312,1079848,9.820299,0.498961,0.211000,-0.118603,-0.062110,-0.031913,-0.141193,-0.256548,0.455283,85.957768,-87.217713,-89.474261
08313,1079948,9.863846,0.507953,0.196285,-0.126884,-0.066935,-0.024226,-0.140049,-0.251719,0.448015,86.692819,-87.205245,-90.283498
08314,1080048,9.889390,0.530608,0.157491,-0.126614,-0.062155,-0.017988,-0.146892,-0.245814,0.441795,87.361897,-87.195721,-91.026535
08315,1080148,9.861202,0.542489,0.071371,-0.123544,-0.047882,-0.012712,-0.150849,-0.245679,0.440294,87.859337,-87.188507,-91.595973
08316,1080248,9.815472,0.517078,-0.041569,-0.120380,-0.042665,-0.005853,-0.159747,-0.243873,0.436869,88.292872,-87.184894,-92.099621
08317,1080348,9.689880,0.510427,-0.032733,-0.109914,-0.041662,-0.006343,-0.166177,-0.238692,0.435122,88.719684,-87.180800,-92.590540
08318,1080448,9.722792,0.429229,-0.010739,-0.098008,-0.041553,-0.010896,-0.178109,-0.236461,0.434220,89.151486,-87.173918,-93.079628
08319,1080548,9.748659,0.385066,0.057637,-0.091183,-0.054599,-0.003287,-0.186561,-0.237275,0.433167,89.735606,-87.171258,-93.717305
08320,1080648,9.684635,0.399694,0.056735,-0.086513,-0.067747,-0.006737,-0.189051,-0.237236,0.433167,90.473130,-87.166247,-94.505894
08321,1080748,9.731873,0.362253,0.067580,-0.077744,-0.073807,-0.006442,-0.193454,-0.233484,0.429344,91.282911,-87.160830,-95.361799
08322,1080848,9.755318,0.375443,0.076507,-0.074590,-0.069387,-0.005974,-0.194384,-0.232802,0.425871,92.040409,-87.155180,-96.163547
08323,1080948,9.817453,0.401596,0.087428,-0.068449,-0.061933,-0.006885,-0.194345,-0.231709,0.423922,92.711998,-87.148693,-96.875758
08324,1081048,9.857030,0.457462,0.050444,-0.068046,-0.044153,-0.004392,-0.195262,-0.229009,0.420051,93.178437,-87.143806,-97.382336
08325,1081148,9.846633,0.489222,0.011024,-0.066667,-0.027220,-0.005873,-0.194139,-0.225723,0.413706,93.449196,-87.138470,-97.692201
08326,1081248,9.876592,0.508198,0.021580,-0.066412,-0.013605,-0.002502,-0.193530,-0.225441,0.407709,93.565966,-87.135488,-97.847741
08327,1081348,9.872456,0.482522,-0.011303,-0.061080,-0.004118,-0.001718,-0.190016,-0.225923,0.406185,93.577784,-87.133284,-97.895139
08328,1081448,9.788792,0.485550,-0.050202,-0.055894,-0.000633,-0.000546,-0.186431,-0.223246,0.401315,93.553645,-87.131876,-97.903562
08329,1081548,9.790180,0.496480,-0.066730,-0.058375,-0.007527,-0.009537,-0.181787,-0.221413,0.392896,93.600299,-87.125080,-97.984294
08330,1081648,9.892567,0.404979,-0.012128,-0.055391,-0.017531,-0.007185,-0.177662,-0.220617,0.385426,93.763774,-87.119256,-98.180282
08331,1081748,9.851217,0.482630,0.062443,-0.049730,-0.030729,-0.004175,-0.172541,-0.215377,0.378684,94.081771,-87.114595,-98.527739
08332,1081848,9.853976,0.526067,0.043318,-0.043835,-0.030709,-0.005211,-0.167438,-0.214146,0.372239,94.400913,-87.109245,-98.872964
08333,1081948,9.908221,0.581668,0.026114,-0.046587,-0.024614,-0.006100,-0.162792,-0.211317,0.363870,94.647619,-87.103575,-99.147241
08334,1082048,9.869363,0.586410,0.016535,-0.048959,-0.017500,-0.005804,-0.152173,-0.206115,0.356131,94.812108,-87.098358,-99.340560
08335,1082148,9.758810,0.580663,0.017096,-0.050541,-0.007735,-0.009136,-0.146515,-0.204250,0.346712,94.862065,-87.091691,-99.420112
08336,1082248,9.721865,0.616485,0.030271,-0.049250,-0.000231,-0.010954,-0.135916,-0.200093,0.339922,94.826593,-87.084345,-99.413386
08337,1082348,9.833131,0.354382,-0.021960,-0.054904,0.002723,-0.008303,-0.124290,-0.193388,0.331759,94.757463,-87.078659,-99.376200
08338,1082448,9.794297,0.383191,-0.002356,-0.062937,-0.001153,0.007457,-0.111129,-0.190074,0.320919,94.741895,-87.081789,-99.397251
08339,1082548,9.818675,0.463413,-0.008491,-0.062511,-0.002287,0.016108,-0.098536,-0.184454,0.314205,94.747400,-87.089807,-99.439159
08340,1082648,9.784983,0.519242,-0.016949,-0.063924,-0.000286,0.008593,-0.083445,-0.180344,0.306916,94.722682,-87.093629,-99.451615
08341,1082748,9.849209,0.548454,-0.037873,-0.058065,-0.004815,0.009023,-0.069886,-0.175809,0.301651,94.752750,-87.097480,-99.515571
08342,1082848,9.808644,0.569634,0.011718,-0.053417,-0.003959,0.002761,-0.054825,-0.172767,0.295811,94.770044,-87.097794,-99.564071
08343,1082948,9.848675,0.593289,0.003043,-0.048784,-0.006026,-0.002959,-0.038747,-0.168199,0.289047,94.807852,-87.094740,-99.630457
08344,1083048,9.906390,0.507095,-0.006776,-0.050320,0.002734,-0.001463,-0.025692,-0.162185,0.284358,94.747629,-87.092958,-99.599567
08345,1083148,9.771966,0.524189,-0.108140,-0.051121,0.014351,-0.003383,-0.012152,-0.158196,0.280067,94.554772,-87.090616,-99.436336
08346,1083248,9.753211,0.471943,-0.169113,-0.058952,0.016164,-0.007639,-0.002172,-0.153347,0.279824,94.333816,-87.085894,-99.249468
08347,1083348,9.691056,0.405182,-0.184929,-0.065749,0.000955,-0.005168,0.007860,-0.150846,0.276456,94.282259,-87.081909,-99.236120
08348,1083448,9.675003,0.447257,-0.103814,-0.067376,-0.011006,0.000199,0.023316,-0.143119,0.276867,94.368405,-87.080476,-99.361590
08349,1083548,9.723616,0.495219,-0.010920,-0.065793,-0.017095,0.005472,0.032215,-0.139468,0.281071,94.528219,-87.081771,-99.559916
08350,1083648,9.754809,0.561502,0.036318,-0.064086,-0.016743,0.010348,0.043590,-0.138372,0.285650,94.689720,-87.085836,-99.758953
08351,1083748,9.782143,0.569237,-0.008212,-0.065314,-0.016940,0.007228,0.055561,-0.129594,0.286110,94.850253,-87.088081,-99.957727
08352,1083848,9.813289,0.543684,-0.010238,-0.065200,-0.022887,0.010751,0.065928,-0.125043,0.291865,95.081444,-87.092006,-100.227186
08353,1083948,9.774040,0.505088,0.014192,-0.066089,-0.026458,0.005796,0.075809,-0.123923,0.296443,95.347716,-87.092859,-100.532281
08354,1084048,9.873539,0.486908,-0.006228,-0.039219,-0.007119,0.002358,0.084685,-0.117853,0.302274,95.408619,-87.092745,-100.616327
08355,1084148,9.769317,0.477985,-0.052982,-0.009671,0.005026,0.002798,0.089137,-0.114034,0.304477,95.350520,-87.093536,-100.564268
08356,1084248,9.630366,0.408742,-0.093322,-0.003231,-0.023643,-0.008577,0.095946,-0.113084,0.313552,95.605671,-87.086277,-100.822169
08357,1084348,9.752045,0.279196,-0.045808,0.002516,-0.052154,-0.010072,0.101842,-0.106943,0.318883,96.179354,-87.076400,-101.395718
08358,1084448,9.823213,0.283347,0.104502,0.009053,-0.054156,-0.008980,0.106205,-0.106828,0.325407,96.776486,-87.066724,-101.988992
08359,1084548,9.844307,0.366548,0.086292,0.003103,-0.053007,-0.007307,0.109528,-0.105324,0.334506,97.355879,-87.057774,-102.567917
08360,1084648,9.781294,0.464434,-0.003155,-0.002666,-0.067196,-0.005368,0.110389,-0.102712,0.342156,98.087546,-87.048494,-103.302632
08361,1084748,9.743023,0.567998,-0.030175,-0.004558,-0.076671,-0.000393,0.115738,-0.103634,0.349129,98.925639,-87.040712,-104.145008
08362,1084848,9.697335,0.583709,-0.043136,-0.005964,-0.080390,0.001124,0.117084,-0.098587,0.357906,99.801701,-87.032789,-105.026219
08363,1084948,9.705893,0.538575,-0.095888,0.003022,-0.082412,-0.001982,0.119909,-0.096577,0.367031,100.693601,-87.022205,-105.918144
08364,1085048,9.687575,0.500035,-0.093003,0.012413,-0.075573,-0.001965,0.122698,-0.094165,0.378179,101.510870,-87.011696,-106.729959
08365,1085148,9.723648,0.435217,-0.138798,0.026664,-0.070570,-0.004206,0.123962,-0.093296,0.390751,102.271816,-86.999942,-107.477207
08366,1085248,9.734811,0.399244,-0.159561,0.035350,-0.078126,-0.001435,0.124272,-0.089824,0.401451,103.118747,-86.988240,-108.305584
08367,1085348,9.785835,0.354490,-0.110582,0.040941,-0.089092,-0.004414,0.128044,-0.089942,0.412972,104.069770,-86.972725,-109.234998
08368,1085448,9.831115,0.320487,-0.075937,0.052847,-0.098091,-0.002434,0.129350,-0.086486,0.423672,105.116972,-86.956162,-110.253904
08369,1085548,9.815219,0.372190,-0.036235,0.058663,-0.100186,0.000644,0.131602,-0.085159,0.436769,106.186719,-86.939983,-111.292061
08370,1085648,9.767478,0.423702,-0.062569,0.061935,-0.097554,-0.000795,0.130394,-0.084202,0.448341,107.215567,-86.922440,-112.287397
08371,1085748,9.697400,0.485920,-0.125014,0.065519,-0.090747,0.000059,0.129692,-0.084226,0.459362,108.169000,-86.905629,-113.205169
08372,1085848,9.659168,0.461768,-0.150169,0.068433,-0.086359,0.000574,0.130957,-0.082859,0.471959,109.071823,-86.889102,-114.070599
08373,1085948,9.643323,0.494039,-0.186440,0.070472,-0.082612,0.004466,0.132199,-0.079073,0.486182,109.943270,-86.874670,-114.903451
08374,1086048,9.670790,0.541575,-0.185065,0.071781,-0.083593,0.006997,0.131992,-0.080599,0.497128,110.826427,-86.860708,-115.747295
08375,1086148,9.696498,0.592112,-0.144983,0.071178,-0.094268,0.013221,0.128803,-0.078092,0.508275,111.828489,-86.847083,-116.710582
08376,1086248,9.778933,0.570281,-0.118685,0.059181,-0.102599,0.013904,0.128594,-0.076155,0.519897,112.897143,-86.831049,-117.747462
08377,1086348,9.835465,0.546851,-0.031205,0.052050,-0.109751,0.018950,0.127832,-0.073358,0.534569,114.039095,-86.814934,-118.861858
08378,1086448,9.868536,0.591058,-0.063215,0.054519,-0.106015,0.019965,0.122135,-0.070361,0.546741,115.140385,-86.799032,-119.934129
08379,1086548,9.843647,0.543654,-0.156775,0.060629,-0.087402,0.015895,0.118887,-0.070490,0.560760,116.045381,-86.784589,-120.806309
08380,1086648,9.791273,0.520760,-0.253233,0.064860,-0.075135,0.011119,0.108631,-0.068611,0.576877,116.811660,-86.770112,-121.537139
08381,1086748,9.727595,0.461377,-0.304928,0.069440,-0.077510,0.008482,0.099423,-0.063639,0.590649,117.582739,-86.753118,-122.270161
08382,1086848,9.693879,0.446982,-0.255864,0.076175,-0.086724,0.009309,0.092690,-0.062716,0.604717,118.435108,-86.733479,-123.080754
08383,1086948,9.707489,0.472835,-0.200211,0.081127,-0.095616,0.007986,0.079381,-0.059962,0.624384,119.351073,-86.710005,-123.952222
08384,1087048,9.716179,0.474461,-0.178043,0.085126,-0.100082,0.007633,0.064481,-0.054958,0.649674,120.292837,-86.684279,-124.847257
08385,1087148,9.665706,0.752231,-0.167756,0.088772,-0.104313,0.002879,0.047080,-0.055395,0.674685,121.233552,-86.654123,-125.739180
08386,1087248,9.920967,0.320942,-0.244014,0.092263,-0.103918,0.003765,0.036326,-0.053509,0.690802,122.161038,-86.623680,-126.615870
08387,1087348,9.870384,0.342849,-0.201380,0.072962,-0.109042,0.023239,0.033181,-0.052874,0.699349,123.205029,-86.600167,-127.620367
08388,1087448,9.802492,0.419953,-0.225789,0.073693,-0.102279,0.020654,0.030477,-0.052890,0.710869,124.167568,-86.576536,-128.542870
08389,1087548,9.773333,0.414532,-0.305044,0.081656,-0.095810,0.018466,0.025782,-0.052377,0.722414,125.059200,-86.553095,-129.389788
08390,1087648,9.748963,0.423448,-0.343498,0.084096,-0.094576,0.012987,0.016046,-0.053921,0.736854,125.900545,-86.526743,-130.184952
08391,1087748,9.726895,0.415747,-0.386538,0.082018,-0.093110,0.008925,0.008311,-0.050516,0.751550,126.694535,-86.498330,-130.933888
08392,1087848,9.722353,0.399183,-0.398225,0.080918,-0.091345,0.007533,0.006082,-0.053079,0.763942,127.454521,-86.469275,-131.649412
08393,1087948,9.724078,0.393964,-0.402958,0.079628,-0.085288,0.012879,0.001449,-0.053891,0.771913,128.188236,-86.444197,-132.339376
08394,1088048,9.736770,0.408015,-0.420453,0.079655,-0.082885,0.017321,0.000207,-0.056494,0.784806,128.920351,-86.421424,-133.027742
08395,1088148,9.734222,0.416077,-0.384431,0.072953,-0.082935,0.025543,-0.004408,-0.052799,0.792504,129.687706,-86.401719,-133.755281
08396,1088248,9.758223,0.427963,-0.386988,0.057778,-0.081962,0.034825,-0.007067,-0.053691,0.801475,130.486030,-86.385822,-134.522576
08397,1088348,9.774178,0.512053,-0.383469,0.042952,-0.087692,0.041594,-0.013622,-0.050816,0.806123,131.348095,-86.370005,-135.362266
08398,1088448,9.820341,0.599485,-0.390008,0.032684,-0.091413,0.046672,-0.012366,-0.049473,0.819220,132.252151,-86.354116,-136.249946
08399,1088548,9.844562,0.651869,-0.397986,0.022951,-0.093282,0.051692,-0.013470,-0.052711,0.824565,133.185559,-86.338709,-137.172649
08400,1088648,9.868184,0.663805,-0.450355,0.025235,-0.089136,0.055519,-0.017720,-0.055813,0.838432,134.109424,-86.325571,-138.084499
08401,1088748,9.924077,0.705811,-0.570788,0.047707,-0.067030,0.051876,-0.024311,-0.053034,0.845080,134.877246,-86.318954,-138.827102
08402,1088848,9.796500,0.741176,-0.672998,0.059685,-0.059272,0.043768,-0.030473,-0.052425,0.855125,135.549350,-86.311609,-139.466934
08403,1088948,9.673673,0.688837,-0.705616,0.049150,-0.081486,0.031348,-0.034694,-0.054956,0.867517,136.269387,-86.289661,-140.160872
08404,1089048,9.695615,0.587816,-0.666736,0.040201,-0.102286,0.022559,-0.043819,-0.055722,0.875986,137.043937,-86.254999,-140.914611
08405,1089148,9.726232,0.596267,-0.551883,0.032794,-0.112662,0.019603,-0.051062,-0.055811,0.890503,137.841509,-86.214138,-141.695714
08406,1089248,9.621987,0.655392,-0.460544,0.015472,-0.127967,0.020875,-0.058178,-0.057557,0.897922,138.706845,-86.166471,-142.554724
08407,1089348,9.651281,0.671060,-0.420107,-0.001706,-0.143807,0.023646,-0.066409,-0.058104,0.911914,139.645397,-86.112078,-143.497039
08408,1089448,9.764302,0.669896,-0.396568,-0.025453,-0.140806,0.030702,-0.074076,-0.058491,0.922407,140.573642,-86.060567,-144.442725
08409,1089548,9.844502,0.615009,-0.404622,-0.044358,-0.130323,0.033114,-0.078746,-0.059401,0.932377,141.428483,-86.013595,-145.325748
08410,1089648,9.847045,0.542852,-0.471126,-0.051837,-0.113616,0.034119,-0.088465,-0.061395,0.945792,142.181867,-85.973649,-146.111409
08411,1089748,9.865664,0.482711,-0.509410,-0.049243,-0.099904,0.034970,-0.092211,-0.061516,0.959811,142.860252,-85.939551,-146.820431
08412,1089848,9.756051,0.456143,-0.616712,-0.045298,-0.095480,0.031189,-0.098863,-0.061373,0.969331,143.483870,-85.905615,-147.472316
08413,1089948,9.672109,0.433653,-0.669886,-0.041492,-0.109847,0.024934,-0.104652,-0.063575,0.985746,144.125702,-85.862406,-148.140311
08414,1090048,9.637493,0.378598,-0.656596,-0.043946,-0.131795,0.019154,-0.107298,-0.061952,0.994344,144.814612,-85.806482,-148.856964
08415,1090148,9.649371,0.265043,-0.553051,-0.044662,-0.144223,0.018498,-0.112000,-0.065424,1.005686,145.534611,-85.743863,-149.605254
08416,1090248,9.692904,0.167517,-0.501916,-0.041804,-0.145424,0.021977,-0.114720,-0.063993,1.018281,146.261913,-85.681106,-150.359277
08417,1090348,9.723125,0.140264,-0.443107,-0.031571,-0.139978,0.026255,-0.113941,-0.066556,1.029676,146.978408,-85.621605,-151.096635
08418,1090448,9.733086,0.083024,-0.436462,-0.017207,-0.131340,0.034315,-0.118076,-0.061920,1.038425,147.699778,-85.568072,-151.830671
08419,1090548,9.740599,0.092618,-0.389828,-0.007916,-0.127633,0.045024,-0.118818,-0.063535,1.051369,148.461517,-85.518871,-152.599897
08420,1090648,9.708789,0.051866,-0.390756,-0.001973,-0.116767,0.054520,-0.118423,-0.059348,1.057595,149.228760,-85.477028,-153.371262
08421,1090748,9.650547,-0.043502,-0.411789,0.007972,-0.103890,0.067161,-0.119551,-0.054711,1.065346,150.019934,-85.444404,-154.160941
08422,1090848,9.581873,-0.107838,-0.480281,0.025997,-0.100032,0.083713,-0.114218,-0.053689,1.073421,150.899977,-85.417479,-155.029429
08423,1090948,9.620592,-0.170875,-0.584744,0.040550,-0.100433,0.095696,-0.109317,-0.051991,1.078023,151.854483,-85.392544,-155.964271
08424,1091048,9.730807,-0.101600,-0.550587,0.072122,-0.113449,0.102969,-0.098337,-0.045664,1.077857,152.904430,-85.361634,-156.976739
08425,1091148,9.873934,0.065053,-0.511188,0.108255,-0.121323,0.102129,-0.094860,-0.040786,1.079111,153.980055,-85.324972,-157.994237
08426,1091248,9.942941,0.209575,-0.483882,0.141603,-0.119845,0.088855,-0.084918,-0.037030,1.080817,154.970187,-85.284319,-158.906830
08427,1091348,9.934786,0.282672,-0.500410,0.172382,-0.112745,0.068967,-0.072899,-0.032093,1.078076,155.816439,-85.241433,-159.657402
08428,1091448,9.853264,0.243159,-0.555436,0.189185,-0.110319,0.050597,-0.066931,-0.021797,1.080111,156.536385,-85.194727,-160.271608
08429,1091548,9.746324,0.124912,-0.587273,0.206099,-0.110101,0.034898,-0.059910,-0.015833,1.078418,157.154910,-85.144009,-160.774344
08430,1091648,9.713721,-0.034334,-0.595591,0.213864,-0.109399,0.027260,-0.053390,-0.006397,1.077404,157.717379,-85.091555,-161.216382
08431,1091748,9.748284,-0.087860,-0.544349,0.225810,-0.103943,0.029338,-0.048359,0.000596,1.075762,158.275453,-85.042088,-161.647156
08432,1091848,9.823005,0.073199,-0.635357,0.236463,-0.104657,0.034946,-0.042274,0.008713,1.071172,158.865721,-84.993049,-162.104144
08433,1091948,9.892344,0.291195,-0.689561,0.234736,-0.110439,0.030434,-0.038243,0.019185,1.070207,159.430648,-84.939598,-162.536719
08434,1092048,9.852939,0.543218,-0.708982,0.227305,-0.111618,0.021744,-0.031615,0.025921,1.063042,159.931165,-84.883432,-162.908947
08435,1092148,9.829255,0.662536,-0.773799,0.215310,-0.113045,0.013199,-0.028395,0.036392,1.052056,160.367368,-84.824562,-163.223544
08436,1092248,9.736305,0.707961,-0.763516,0.198211,-0.119605,0.008532,-0.023159,0.043914,1.039418,160.771254,-84.761050,-163.515569
08437,1092348,9.711498,0.603021,-0.737798,0.182228,-0.119511,0.003042,-0.015350,0.056572,1.023037,161.125350,-84.696385,-163.766826
08438,1092448,9.731606,0.453662,-0.708345,0.165215,-0.116322,-0.001893,-0.006999,0.067349,1.004055,161.427678,-84.632414,-163.975908
08439,1092548,9.775578,0.337797,-0.713909,0.153516,-0.110424,-0.001625,0.000386,0.079709,0.983649,161.707644,-84.571600,-164.169281
08440,1092648,9.834197,0.286950,-0.724548,0.144302,-0.105723,0.005523,0.003290,0.093635,0.963319,162.008948,-84.514532,-164.389410
08441,1092748,9.906300,0.282389,-0.799360,0.135972,-0.104335,0.008445,0.009724,0.105135,0.940364,162.314064,-84.458624,-164.618183
08442,1092848,9.962314,0.262678,-0.843545,0.121709,-0.100094,0.011515,0.009614,0.115074,0.920829,162.615422,-84.405448,-164.851411
08443,1092948,9.966560,0.280908,-0.860539,0.107148,-0.086019,0.013440,0.011075,0.126179,0.897346,162.890058,-84.360188,-165.066192
08444,1093048,9.871168,0.321436,-0.941074,0.101862,-0.079160,0.016757,0.007492,0.138191,0.877412,163.164588,-84.319139,-165.283927
08445,1093148,9.801422,0.328345,-0.949591,0.094803,-0.085221,0.023054,0.002441,0.149800,0.855952,163.475933,-84.275686,-165.542745
08446,1093248,9.733692,0.346601,-0.880315,0.087771,-0.094146,0.026866,0.001335,0.160254,0.836442,163.813842,-84.227796,-165.832335
08447,1093348,9.742926,0.377961,-0.804232,0.079454,-0.097580,0.029039,-0.005661,0.172015,0.812483,164.158826,-84.178188,-166.133851
08448,1093448,9.733847,0.387675,-0.813278,0.077898,-0.090877,0.031463,-0.010748,0.179566,0.792320,164.500434,-84.132472,-166.432897
08449,1093548,9.702928,0.459986,-0.887292,0.056292,-0.092527,0.038143,-0.019757,0.190813,0.769334,164.862755,-84.086667,-166.765240
08450,1093648,9.725924,0.437704,-0.912720,0.026103,-0.102032,0.043826,-0.026728,0.201152,0.743799,165.245912,-84.036218,-167.135955
08451,1093748,9.740712,0.293537,-0.870327,0.002041,-0.095466,0.043096,-0.034258,0.203905,0.720382,165.596266,-83.989061,-167.487584
08452,1093848,9.691578,0.248656,-0.932121,-0.017233,-0.081130,0.044025,-0.039289,0.211102,0.697194,165.916189,-83.949782,-167.819744
08453,1093948,9.614069,0.286646,-1.030886,-0.030506,-0.089319,0.046016,-0.046824,0.216322,0.674404,166.245150,-83.906023,-168.168670
08454,1094048,9.608451,0.343224,-1.057214,-0.028548,-0.109083,0.048361,-0.048901,0.219415,0.652514,166.606897,-83.851347,-168.549482
08455,1094148,9.655867,0.279834,-1.053565,-0.024572,-0.106139,0.047433,-0.053960,0.221582,0.630071,166.956086,-83.797937,-168.915413
08456,1094248,9.698988,0.207303,-1.128051,-0.021268,-0.096520,0.041339,-0.060539,0.224697,0.609179,167.258906,-83.748893,-169.232834
08457,1094348,9.736427,0.023175,-1.168148,-0.018935,-0.098561,0.038489,-0.064624,0.229765,0.588389,167.546120,-83.698172,-169.533240
08458,1094448,9.784123,0.041838,-1.135438,-0.018110,-0.114108,0.050187,-0.070262,0.227762,0.569742,167.904786,-83.639985,-169.905092
08459,1094548,9.806156,0.064018,-1.036197,-0.021218,-0.143713,0.059915,-0.073889,0.225277,0.550071,168.334076,-83.566065,-170.349846
08460,1094648,9.782536,0.083551,-0.932575,-0.032566,-0.169437,0.069177,-0.078022,0.224270,0.530975,168.817652,-83.478360,-170.855845
08461,1094748,9.718079,0.144160,-0.904429,-0.047259,-0.185929,0.075008,-0.078688,0.222662,0.512855,169.323141,-83.381524,-171.392463
08462,1094848,9.682828,0.176774,-0.879124,-0.059918,-0.189901,0.073272,-0.083299,0.217251,0.492031,169.801470,-83.281750,-171.909140
08463,1094948,9.622264,0.242289,-0.972240,-0.066775,-0.177955,0.065134,-0.085393,0.216333,0.470437,170.213156,-83.187446,-172.362767
08464,1095048,9.544051,0.228313,-1.111830,-0.061616,-0.166227,0.048913,-0.090043,0.209332,0.451537,170.531152,-83.097874,-172.719140
08465,1095148,9.533456,0.151363,-1.208800,-0.051305,-0.163236,0.034302,-0.102578,0.203670,0.428186,170.776762,-83.008422,-172.996711
08466,1095248,9.549978,0.037209,-1.290033,-0.039516,-0.168246,0.023706,-0.110116,0.196482,0.403761,170.977854,-82.915038,-173.222675
08467,1095348,9.592380,-0.059898,-1.249069,-0.028043,-0.175158,0.020197,-0.122167,0.188298,0.380783,171.169018,-82.817334,-173.432053
08468,1095448,9.600745,-0.097547,-1.242385,-0.023981,-0.190409,0.022667,-0.133206,0.178650,0.356730,171.378375,-82.711116,-173.657466
08469,1095548,9.616938,-0.046535,-1.175949,-0.022117,-0.213639,0.027136,-0.144146,0.166777,0.327052,171.617049,-82.592002,-173.911413
08470,1095648,9.633039,-0.050156,-1.119411,-0.025656,-0.237078,0.029040,-0.157121,0.152347,0.299245,171.868491,-82.459620,-174.180348
08471,1095748,9.628481,-0.007831,-0.976676,-0.026524,-0.259476,0.034467,-0.172123,0.139348,0.273514,172.146357,-82.314807,-174.476518
08472,1095848,9.665964,0.172743,-0.998593,-0.019636,-0.271415,0.035011,-0.188723,0.120152,0.252475,172.426308,-82.163073,-174.770909
08473,1095948,9.686858,0.188134,-1.123712,-0.015049,-0.262830,0.031302,-0.204301,0.099519,0.229860,172.678465,-82.015762,-175.034688
08474,1096048,9.698780,0.170833,-1.263531,-0.014107,-0.249028,0.024933,-0.222910,0.081303,0.209871,172.889617,-81.875693,-175.256601
08475,1096148,9.670309,0.120287,-1.379490,-0.014935,-0.242767,0.018907,-0.241549,0.062019,0.191331,173.066389,-81.738657,-175.444335
08476,1096248,9.662564,0.103861,-1.485010,-0.002985,-0.248761,0.016368,-0.263696,0.041247,0.173712,173.236969,-81.597953,-175.618961
08477,1096348,9.548179,0.062464,-1.407557,0.014097,-0.260798,0.013208,-0.283992,0.019086,0.163541,173.404891,-81.450112,-175.781069
08478,1096448,9.635380,0.055071,-1.412903,0.027257,-0.268006,0.006505,-0.302318,-0.005147,0.154268,173.552782,-81.297667,-175.915351
08479,1096548,9.677064,-0.010925,-1.442988,0.053626,-0.253448,0.003238,-0.328099,-0.025751,0.144671,173.692985,-81.153253,-176.026615
08480,1096648,9.677375,-0.073802,-1.531880,0.070632,-0.248566,0.003526,-0.351030,-0.045268,0.142648,173.837988,-81.011595,-176.132916
08481,1096748,9.620474,-0.123546,-1.495381,0.078194,-0.237930,0.013501,-0.373510,-0.065910,0.143074,174.014842,-80.876554,-176.267116
08482,1096848,9.552939,-0.103277,-1.466794,0.082004,-0.233983,0.027020,-0.400466,-0.087454,0.142947,174.235255,-80.744484,-176.443272
08483,1096948,9.560197,-0.047206,-1.444576,0.081540,-0.233482,0.041459,-0.421026,-0.106826,0.147448,174.499507,-80.613396,-176.664184
08484,1097048,9.691727,0.067108,-1.416541,0.077395,-0.227119,0.059234,-0.446617,-0.123273,0.155098,174.813268,-80.486709,-176.937770
08485,1097148,9.777871,0.213829,-1.383982,0.072104,-0.206694,0.067549,-0.468715,-0.135791,0.162953,175.138383,-80.371853,-177.226039
08486,1097248,9.778075,0.342446,-1.380531,0.057780,-0.193828,0.069907,-0.487906,-0.147576,0.175358,175.452511,-80.264194,-177.511584
08487,1097348,9.709365,0.400171,-1.389017,0.041985,-0.183436,0.067855,-0.506525,-0.154218,0.184518,175.741729,-80.162133,-177.781127
08488,1097448,9.708696,0.448024,-1.427796,0.021027,-0.179321,0.062858,-0.525764,-0.156705,0.200905,175.995978,-80.062005,-178.027451
08489,1097548,9.703960,0.478451,-1.443574,0.009211,-0.177854,0.051721,-0.534944,-0.162075,0.211643,176.202161,-79.962117,-178.231926
08490,1097648,9.688577,0.469802,-1.468729,0.010901,-0.177222,0.030381,-0.541109,-0.163458,0.221587,176.336830,-79.861693,-178.362851
08491,1097748,9.673805,0.301994,-1.532094,0.031324,-0.169030,0.014132,-0.546290,-0.166376,0.231954,176.427443,-79.765324,-178.437167
08492,1097848,9.764342,0.167607,-1.522991,0.056914,-0.162182,0.002042,-0.549979,-0.165356,0.243025,176.491843,-79.672430,-178.469963
08493,1097948,9.854298,-0.004203,-1.505647,0.081215,-0.144666,-0.006173,-0.556617,-0.167655,0.251418,176.540386,-79.589266,-178.472485
08494,1098048,9.923804,-0.150384,-1.550087,0.103166,-0.125217,-0.011827,-0.560752,-0.168974,0.259363,176.580004,-79.517037,-178.453131
08495,1098148,9.926481,-0.233854,-1.632485,0.114644,-0.104712,-0.011355,-0.564933,-0.169417,0.269857,176.623779,-79.456557,-178.431300
08496,1098248,9.904077,-0.244408,-1.764998,0.127140,-0.091294,-0.001691,-0.568115,-0.168380,0.280429,176.701751,-79.404079,-178.436959
08497,1098348,9.867684,-0.187872,-1.823417,0.139282,-0.091368,0.011709,-0.571210,-0.165632,0.286578,176.827074,-79.351990,-178.483711
08498,1098448,9.857229,-0.149080,-1.749157,0.135767,-0.100568,0.025114,-0.573378,-0.165062,0.296124,176.991658,-79.295030,-178.572466
08499,1098548,9.869534,0.014625,-1.634761,0.133202,-0.104791,0.032004,-0.580477,-0.162797,0.303246,177.174826,-79.235809,-178.681642
08500,1098648,9.859712,0.076207,-1.558191,0.127423,-0.091003,0.029066,-0.581133,-0.162701,0.311768,177.342359,-79.184341,-178.778288
08501,1098748,9.810718,0.117442,-1.598528,0.118745,-0.082221,0.034690,-0.583251,-0.160515,0.318892,177.519296,-79.137995,-178.889583
08502,1098848,9.847743,0.166432,-1.597052,0.118995,-0.073117,0.042265,-0.585894,-0.157397,0.327565,177.716547,-79.096978,-179.021433
08503,1098948,9.881045,0.179038,-1.672420,0.131460,-0.048433,0.046718,-0.588992,-0.156642,0.333613,177.930178,-79.070105,-179.162707
08504,1099048,9.888113,0.174234,-1.795511,0.149517,-0.022851,0.043444,-0.587589,-0.155412,0.338688,178.141063,-79.057717,-179.290658
08505,1099148,9.845498,0.111356,-1.874641,0.166250,-0.004693,0.040223,-0.591148,-0.154553,0.342736,178.350016,-79.055581,-179.406884
08506,1099248,9.772904,0.093147,-1.913376,0.172653,0.001914,0.038721,-0.593267,-0.152866,0.349834,178.557605,-79.057124,-179.517989
08507,1099348,9.709308,0.040790,-1.841356,0.172947,-0.003815,0.039468,-0.592849,-0.151098,0.354434,178.767995,-79.055316,-179.631775
08508,1099448,9.702840,-0.029847,-1.782617,0.172902,-0.011112,0.042992,-0.592431,-0.148831,0.359060,178.989146,-79.049287,-179.756549
08509,1099548,9.727240,-0.043125,-1.713738,0.179525,-0.014913,0.046092,-0.593985,-0.141028,0.363464,179.223239,-79.041016,-179.890638
08510,1099648,9.787160,-0.038675,-1.656791,0.199206,-0.007592,0.050146,-0.592596,-0.142812,0.368886,179.480096,-79.036859,179.963573
08511,1099748,9.791726,-0.056678,-1.715538,0.216309,-0.001245,0.049153,-0.593621,-0.143366,0.370360,179.743562,-79.036211,179.821038
08512,1099848,9.794561,-0.074598,-1.788723,0.230959,0.000385,0.047946,-0.591175,-0.137073,0.373690,-179.988175,-79.036370,179.682167
08513,1099948,9.756878,-0.102983,-1.878983,0.241746,-0.010537,0.047125,-0.594304,-0.137886,0.381160,-179.716272,-79.030146,179.545885
08514,1100048,9.722409,-0.136896,-1.899146,0.247114,-0.023494,0.045470,-0.592850,-0.134542,0.383838,-179.446731,-79.016381,179.415138
08515,1100148,9.721722,-0.163643,-1.906141,0.255054,-0.026571,0.046236,-0.590411,-0.132235,0.386965,-179.170996,-79.000726,179.282711
08516,1100248,9.724172,-0.193402,-1.933574,0.254339,-0.022240,0.047821,-0.590458,-0.127397,0.390217,-178.891342,-78.987412,179.145868
08517,1100348,9.680433,-0.229778,-1.962486,0.250216,-0.008998,0.052636,-0.592566,-0.124689,0.396867,-178.599474,-78.981488,178.994174
08518,1100448,9.610198,-0.344900,-2.087627,0.252031,0.002002,0.055338,-0.590566,-0.125693,0.396317,-178.297911,-78.981665,178.833661
08519,1100548,9.514413,-0.477065,-2.094155,0.256447,-0.011865,0.061857,-0.591623,-0.123355,0.399942,-177.975990,-78.973604,178.654988
08520,1100648,9.476302,-0.566794,-2.061435,0.254684,-0.028754,0.073320,-0.590190,-0.121056,0.403568,-177.623741,-78.955413,178.444387
08521,1100748,9.492810,-0.649370,-2.024742,0.249382,-0.033560,0.080833,-0.589171,-0.119030,0.402670,-177.254056,-78.934019,178.212921
08522,1100848,9.556752,-0.673089,-1.930421,0.250241,-0.023102,0.088481,-0.586774,-0.114353,0.408423,-176.861011,-78.918084,177.958153
08523,1100948,9.650683,-0.623428,-1.869960,0.247804,0.001258,0.094509,-0.588322,-0.112979,0.411498,-176.448341,-78.915535,177.681970
08524,1101048,9.726236,-0.570061,-1.948169,0.245239,0.026122,0.095143,-0.591373,-0.111605,0.415071,-176.030459,-78.926790,177.398994
08525,1101148,9.783525,-0.488101,-1.899419,0.242876,0.049086,0.094118,-0.588853,-0.110576,0.413624,-175.611121,-78.950809,177.113179
08526,1101248,9.800748,-0.371987,-2.094766,0.233843,0.057836,0.094242,-0.585921,-0.106308,0.417352,-175.192937,-78.979412,176.823294
08527,1101348,9.716896,-0.219406,-2.086444,0.217554,0.047434,0.090814,-0.589429,-0.107297,0.418300,-174.795103,-79.001846,176.544651
08528,1101448,9.753018,-0.271946,-2.073864,0.195779,0.040125,0.079946,-0.586493,-0.105994,0.421376,-174.442420,-79.020339,176.299310
08529,1101548,9.719894,-0.272119,-2.073110,0.165314,0.035634,0.068467,-0.591000,-0.103504,0.423001,-174.141334,-79.036652,176.088756
08530,1101648,9.741039,-0.338993,-1.971027,0.145043,0.028594,0.053434,-0.589988,-0.105465,0.421900,-173.897591,-79.049656,175.924791
08531,1101748,9.694378,-0.431604,-1.899076,0.123945,0.016625,0.040780,-0.586025,-0.102113,0.423578,-173.706604,-79.056504,175.802257
08532,1101848,9.676865,-0.512699,-1.827864,0.097548,0.008797,0.027839,-0.585603,-0.102812,0.427552,-173.571238,-79.059648,175.720980
08533,1101948,9.626369,-0.563083,-1.758984,0.074925,0.008431,0.016476,-0.588057,-0.098216,0.426280,-173.482333,-79.063286,175.673833
08534,1102048,9.597623,-0.614025,-1.763883,0.056674,0.010359,0.010359,-0.584593,-0.100811,0.427153,-173.421166,-79.068409,175.644299
08535,1102148,9.630141,-0.640555,-1.720848,0.046580,0.027677,0.010022,-0.586645,-0.097460,0.430830,-173.360754,-79.083405,175.609659
08536,1102248,9.596499,-0.646975,-1.692526,0.034657,0.057450,0.015415,-0.584183,-0.098070,0.432304,-173.280714,-79.114977,175.548091
08537,1102348,9.569486,-0.568096,-1.811862,-0.002626,0.081508,0.014288,-0.584693,-0.099581,0.432727,-173.216465,-79.160297,175.480867
08538,1102448,9.601554,-0.571095,-1.954329,-0.021981,0.095920,0.016751,-0.582659,-0.097025,0.430856,-173.150217,-79.213628,175.400335
08539,1102548,9.651701,-0.537014,-2.013573,-0.026196,0.102309,0.014243,-0.584679,-0.097066,0.432355,-173.090828,-79.270742,175.324344
08540,1102648,9.669274,-0.531027,-1.985773,-0.021936,0.116548,0.003480,-0.584209,-0.097146,0.433854,-173.055475,-79.336680,175.275316
08541,1102748,9.649909,-0.452804,-1.954239,-0.026030,0.129852,-0.014994,-0.580670,-0.099050,0.430755,-173.073161,-79.411456,175.277879
08542,1102848,9.627717,-0.370990,-2.005749,-0.051284,0.131541,-0.035750,-0.584177,-0.099541,0.431728,-173.168487,-79.488610,175.344696
08543,1102948,9.618716,-0.302225,-2.019279,-0.079891,0.121537,-0.056461,-0.583659,-0.099002,0.430754,-173.349060,-79.561428,175.481515
08544,1103048,9.645657,-0.245160,-2.067359,-0.092430,0.113839,-0.071856,-0.581195,-0.098616,0.432280,-173.589676,-79.630767,175.672037
08545,1103148,9.626559,-0.182130,-2.099083,-0.087256,0.124693,-0.081204,-0.579711,-0.099162,0.432755,-173.855837,-79.706711,175.891482
08546,1103248,9.505482,-0.109877,-2.131840,-0.087253,0.117887,-0.084082,-0.578196,-0.103099,0.431052,-174.136921,-79.778751,176.126029
08547,1103348,9.497731,-0.126121,-2.139687,-0.101061,0.094409,-0.084702,-0.577274,-0.103307,0.435051,-174.438885,-79.837216,176.373691
08548,1103448,9.572011,-0.157394,-2.025761,-0.115101,0.090204,-0.084410,-0.576274,-0.101330,0.435153,-174.752395,-79.893023,176.624855
08549,1103548,9.542965,-0.143042,-1.911153,-0.133768,0.091086,-0.077667,-0.572744,-0.102760,0.432579,-175.057794,-79.948744,176.856868
08550,1103648,9.459030,-0.206033,-1.833574,-0.169035,0.086212,-0.068826,-0.573743,-0.104239,0.432503,-175.359079,-80.001039,177.064140
08551,1103748,9.464890,-0.148834,-1.809979,-0.184648,0.092384,-0.058698,-0.573268,-0.107284,0.433350,-175.637450,-80.056217,177.239026
08552,1103848,9.514694,-0.010230,-1.756516,-0.189332,0.122737,-0.052396,-0.570298,-0.107380,0.434350,-175.893150,-80.128326,177.388132
08553,1103948,9.538490,0.143337,-1.858010,-0.172629,0.145525,-0.053026,-0.576257,-0.107237,0.433349,-176.139179,-80.213367,177.537084
08554,1104048,9.621195,0.306752,-1.888476,-0.153807,0.156399,-0.062220,-0.570245,-0.108730,0.431275,-176.406314,-80.304847,177.718333
08555,1104148,9.727195,0.435049,-1.822156,-0.126633,0.159961,-0.073653,-0.569752,-0.111727,0.431123,-176.700075,-80.398602,177.942310
08556,1104248,9.829629,0.368853,-1.687205,-0.105931,0.151063,-0.089139,-0.572252,-0.111712,0.431622,-177.041547,-80.487541,178.226620
08557,1104348,9.884947,0.392112,-1.585612,-0.085735,0.134542,-0.103140,-0.567751,-0.112233,0.430598,-177.428190,-80.567112,178.568372
08558,1104448,9.905296,0.347647,-1.462952,-0.058701,0.126787,-0.118340,-0.567755,-0.114226,0.430496,-177.859345,-80.642202,178.970852
08559,1104548,9.878813,0.205097,-1.425804,-0.034959,0.129353,-0.132819,-0.569769,-0.116235,0.431394,-178.334045,-80.718519,179.431151
08560,1104648,9.842625,0.057656,-1.437347,-0.013865,0.148572,-0.140664,-0.564754,-0.117713,0.429320,-178.830668,-80.805324,179.925798
08561,1104748,9.806450,0.036259,-1.493862,-0.001376,0.167831,-0.141078,-0.564298,-0.115350,0.431946,-179.330180,-80.902474,-179.569512
08562,1104848,9.753486,0.070864,-1.528324,0.000233,0.177097,-0.135589,-0.562760,-0.117246,0.429346,-179.819603,-81.004215,-179.074250
08563,1104948,9.719392,0.185573,-1.533611,-0.003428,0.176172,-0.125188,-0.561754,-0.116740,0.428872,179.715729,-81.104777,-178.606315
08564,1105048,9.702469,0.313839,-1.552140,-0.009227,0.166576,-0.113083,-0.561224,-0.119641,0.426721,179.282326,-81.199328,-178.173523
08565,1105148,9.683779,0.436369,-1.506031,-0.010033,0.154777,-0.100810,-0.559279,-0.120291,0.429195,178.885797,-81.286746,-177.778628
08566,1105248,9.693855,0.565894,-1.475471,-0.006897,0.137089,-0.093554,-0.560265,-0.119753,0.428720,178.512139,-81.363719,-177.405158
08567,1105348,9.684249,0.512161,-1.450828,-0.004284,0.125028,-0.087051,-0.557769,-0.122259,0.428094,178.159437,-81.433534,-177.051458
08568,1105448,9.718740,0.462460,-1.216465,-0.004073,0.125165,-0.083512,-0.554763,-0.122757,0.427070,177.814557,-81.503180,-176.705620
08569,1105548,9.701321,0.472488,-1.179363,0.001962,0.132045,-0.080022,-0.555241,-0.121704,0.426121,177.479708,-81.576545,-176.366501
08570,1105648,9.684303,0.425231,-1.199585,0.003905,0.143958,-0.076060,-0.552254,-0.123246,0.426046,177.153155,-81.656549,-176.034718
08571,1105748,9.631453,0.416640,-1.262146,-0.002345,0.152764,-0.070931,-0.553164,-0.121519,0.421623,176.834881,-81.741474,-175.715002
08572,1105848,9.590352,0.466085,-1.306255,-0.010543,0.150503,-0.060105,-0.553215,-0.123632,0.424021,176.548860,-81.825220,-175.432700
08573,1105948,9.506108,0.543663,-1.245676,-0.018539,0.143327,-0.050674,-0.553677,-0.124525,0.421971,176.292092,-81.905008,-175.184648
08574,1106048,9.481599,0.615894,-1.231196,-0.023744,0.125141,-0.041404,-0.550730,-0.122201,0.424598,176.069924,-81.974606,-174.974616
08575,1106148,9.547206,0.681591,-1.178128,-0.034235,0.104552,-0.033850,-0.548752,-0.124748,0.424971,175.874799,-82.032635,-174.798013
08576,1106248,9.633797,0.793113,-1.111297,-0.035337,0.087458,-0.022305,-0.548698,-0.126098,0.421896,175.728922,-82.081309,-174.671816
08577,1106348,9.660629,0.680111,-1.064023,-0.045907,0.073097,-0.018956,-0.548175,-0.127529,0.420321,175.593598,-82.121885,-174.562417
08578,1106448,9.678722,0.684008,-1.102446,-0.061310,0.046440,-0.017334,-0.549225,-0.126163,0.423395,175.463539,-82.147275,-174.467265
08579,1106548,9.617260,0.674434,-1.076284,-0.072233,0.018049,-0.012029,-0.546731,-0.124707,0.423472,175.357961,-82.156670,-174.403164
08580,1106648,9.557044,0.625846,-1.025232,-0.078388,-0.007170,-0.007623,-0.545740,-0.127214,0.423346,175.275462,-82.151860,-174.365933
08581,1106748,9.451189,0.556636,-0.983702,-0.080920,-0.028570,-0.004571,-0.544226,-0.132148,0.421593,175.211534,-82.134974,-174.348924
08582,1106848,9.404106,0.501512,-0.992183,-0.083600,-0.042693,0.001488,-0.544242,-0.130702,0.422668,175.176060,-82.110318,-174.362197
08583,1106948,9.401665,0.422626,-0.973326,-0.094510,-0.050654,0.008380,-0.544746,-0.128725,0.423270,175.165417,-82.081456,-174.406857
08584,1107048,9.465095,0.344455,-0.990563,-0.110723,-0.053763,0.017366,-0.545705,-0.134069,0.420491,175.183156,-82.051257,-174.489559
08585,1107148,9.514213,0.328862,-0.990929,-0.129922,-0.054893,0.027674,-0.546689,-0.132535,0.420067,175.231878,-82.020906,-174.614661
08586,1107248,9.553207,0.374340,-0.956460,-0.148280,-0.059017,0.039664,-0.545183,-0.135998,0.418890,175.319423,-81.988751,-174.789602
08587,1107348,9.599219,0.455004,-0.926821,-0.171607,-0.061149,0.047451,-0.543753,-0.135692,0.422414,175.424682,-81.955706,-174.995949
08588,1107448,9.647801,0.545344,-0.948401,-0.189024,-0.060283,0.050853,-0.546253,-0.136175,0.422888,175.532065,-81.923262,-175.214545
08589,1107548,9.695210,0.616681,-1.020435,-0.208419,-0.056874,0.055986,-0.541732,-0.140610,0.420162,175.646534,-81.892938,-175.451552
08590,1107648,9.659692,0.659905,-1.164606,-0.221037,-0.061340,0.058115,-0.544699,-0.139019,0.419237,175.762207,-81.860090,-175.697114
08591,1107748,9.601629,0.716438,-1.233014,-0.227682,-0.073436,0.057958,-0.545763,-0.145625,0.421906,175.875325,-81.820255,-175.943985
08592,1107848,9.545866,0.742379,-1.210382,-0.228864,-0.099650,0.052108,-0.545177,-0.142925,0.417535,175.969962,-81.765138,-176.172919
08593,1107948,9.594223,0.743260,-1.262699,-0.215751,-0.105652,0.046801,-0.546729,-0.144540,0.420457,176.050622,-81.706330,-176.380192
08594,1108048,9.619580,0.758224,-1.294041,-0.210129,-0.106302,0.037513,-0.545215,-0.143519,0.419508,176.096374,-81.646753,-176.548984
08595,1108148,9.603884,0.681465,-1.378233,-0.228221,-0.131889,0.028711,-0.544237,-0.149040,0.419729,176.102792,-81.572194,-176.688548
08596,1108248,9.668718,0.566147,-1.357851,-0.254355,-0.141933,0.020733,-0.545277,-0.147152,0.422329,176.065036,-81.491588,-176.798634
08597,1108348,9.758263,0.485519,-1.285398,-0.273691,-0.131367,0.022320,-0.544735,-0.149032,0.419729,176.018802,-81.417098,-176.911385
08598,1108448,9.752859,0.432717,-1.361598,-0.301114,-0.119941,0.024336,-0.546729,-0.149498,0.419703,175.960916,-81.349236,-177.028276
08599,1108548,9.721416,0.389894,-1.348472,-0.315173,-0.121513,0.027498,-0.541729,-0.154986,0.417926,175.906704,-81.280623,-177.157063
08600,1108648,9.738656,0.380646,-1.374947,-0.321317,-0.106043,0.032437,-0.540743,-0.155524,0.418400,175.862590,-81.221071,-177.299661
08601,1108748,9.670890,0.353776,-1.513355,-0.321656,-0.091487,0.037210,-0.540251,-0.159019,0.418223,175.831325,-81.170049,-177.455490
08602,1108848,9.643840,0.313940,-1.557306,-0.320542,-0.088495,0.039267,-0.543208,-0.161865,0.416070,175.806701,-81.120832,-177.617427
08603,1108948,9.681666,0.267398,-1.454614,-0.318421,-0.074386,0.038669,-0.537730,-0.162450,0.416046,175.776637,-81.079663,-177.772654
08604,1109048,9.791298,0.211817,-1.374733,-0.313461,-0.066291,0.037256,-0.540210,-0.166847,0.414817,175.741569,-81.043077,-177.919957
08605,1109148,9.867749,0.161326,-1.305371,-0.305122,-0.057652,0.034628,-0.539639,-0.167658,0.410769,175.699028,-81.011334,-178.054871
08606,1109248,9.972342,0.136339,-1.206971,-0.291367,-0.053605,0.031645,-0.540625,-0.167120,0.410294,175.652213,-80.981798,-178.177487
08607,1109348,10.014136,0.127971,-1.081133,-0.268400,-0.042714,0.027399,-0.538646,-0.169169,0.410692,175.600107,-80.958326,-178.281422
08608,1109448,10.060356,0.084887,-1.051388,-0.237436,-0.013813,0.025901,-0.536632,-0.173114,0.408990,175.552309,-80.951321,-178.371752
08609,1109548,10.068438,0.076578,-1.046575,-0.206072,0.019135,0.026689,-0.537633,-0.175589,0.408863,175.516141,-80.963194,-178.455651
08610,1109648,10.027003,0.031234,-1.030781,-0.173007,0.055647,0.028498,-0.537519,-0.173806,0.402942,175.495293,-80.996021,-178.535864
08611,1109748,9.954982,0.041454,-1.103690,-0.147700,0.080387,0.033194,-0.536056,-0.175894,0.404340,175.499223,-81.043200,-178.626464
08612,1109848,9.869192,0.049702,-1.115934,-0.123322,0.095793,0.041806,-0.536040,-0.177341,0.403264,175.544716,-81.099567,-178.744979
08613,1109948,9.789442,0.057674,-1.132190,-0.097222,0.100006,0.050488,-0.534518,-0.177791,0.401740,175.636976,-81.158708,-178.895664
08614,1110048,9.762266,0.066635,-1.107923,-0.074681,0.094158,0.064496,-0.535514,-0.177775,0.401739,175.797228,-81.215063,-179.102055
08615,1110148,9.768756,0.034013,-1.063598,-0.063340,0.088227,0.076046,-0.535014,-0.181745,0.401037,176.010904,-81.268405,-179.355888
08616,1110248,9.768825,-0.016013,-0.966914,-0.049995,0.085825,0.089720,-0.537420,-0.180990,0.396563,176.286935,-81.320744,-179.665019
08617,1110348,9.802515,-0.028408,-0.763191,-0.035428,0.090790,0.103360,-0.536918,-0.179005,0.396665,176.625216,-81.376168,179.971385
08618,1110448,9.815726,-0.030737,-0.718233,-0.019517,0.104450,0.115212,-0.535372,-0.180877,0.393565,177.019489,-81.439446,179.560452
08619,1110548,9.778583,-0.007450,-0.721348,-0.003307,0.122134,0.120318,-0.534859,-0.177872,0.393218,177.445612,-81.512559,179.126793
08620,1110648,9.724753,0.077122,-0.705000,0.011492,0.131715,0.123473,-0.534852,-0.179343,0.392641,177.898534,-81.590748,178.674708
08621,1110748,9.727044,0.131967,-0.706330,0.024562,0.138779,0.125989,-0.537333,-0.179279,0.392141,178.376474,-81.672501,178.205004
08622,1110848,9.795433,0.227773,-0.706116,0.034443,0.149227,0.133206,-0.535279,-0.181135,0.388541,178.897150,-81.759750,177.697938
08623,1110948,9.825861,0.276925,-0.778481,0.043976,0.154324,0.137326,-0.537234,-0.180509,0.386567,179.450493,-81.849276,177.163497
08624,1111048,9.836650,0.319135,-0.860846,0.050404,0.151573,0.143190,-0.535706,-0.177471,0.385220,-179.956786,-81.936484,176.593115
08625,1111148,9.821637,0.282816,-0.875728,0.054367,0.144248,0.147990,-0.535719,-0.179488,0.385619,-179.329912,-82.018625,175.990648
08626,1111248,9.769946,0.267854,-0.927148,0.064048,0.131293,0.149789,-0.535218,-0.178001,0.385695,-178.678613,-82.092390,175.369228
08627,1111348,9.751637,0.233446,-0.914306,0.075643,0.119332,0.151222,-0.536649,-0.178805,0.382145,-178.004550,-82.158289,174.731634
08628,1111448,9.736815,0.228668,-0.900345,0.082405,0.113170,0.151619,-0.536130,-0.177768,0.381196,-177.315166,-82.219615,174.082577
08629,1111548,9.749923,0.216939,-0.889469,0.093643,0.120837,0.151072,-0.538114,-0.177713,0.380696,-176.609240,-82.284271,173.423415
08630,1111648,9.750629,0.187666,-0.908871,0.106748,0.140611,0.156258,-0.539100,-0.177175,0.380221,-175.856277,-82.358907,172.724469
08631,1111748,9.839007,0.096032,-1.022054,0.130693,0.161990,0.162115,-0.538559,-0.174096,0.378375,-175.042297,-82.444208,171.977933
08632,1111848,9.960923,-0.041277,-1.116227,0.156837,0.174811,0.166788,-0.538513,-0.174474,0.375850,-174.169667,-82.535110,171.187497
08633,1111948,10.112270,-0.170714,-1.252032,0.181514,0.172588,0.172413,-0.539494,-0.175905,0.374774,-173.238950,-82.622754,170.352905
08634,1112048,10.208956,-0.234813,-1.309253,0.196030,0.153482,0.181566,-0.543458,-0.174797,0.373824,-172.249743,-82.697055,169.467879
08635,1112148,10.228940,-0.284957,-1.315688,0.201327,0.122291,0.188900,-0.540428,-0.172257,0.371953,-171.227124,-82.751066,168.552359
08636,1112248,10.193489,-0.348532,-1.307896,0.199361,0.087769,0.198653,-0.541911,-0.171213,0.371503,-170.174365,-82.782540,167.605411
08637,1112348,10.185594,-0.400652,-1.296393,0.190864,0.068521,0.204962,-0.541397,-0.167709,0.371181,-169.106334,-82.800300,166.638219
08638,1112448,10.087194,-0.417978,-1.289427,0.178452,0.063653,0.216931,-0.544384,-0.166665,0.371231,-167.992063,-82.811645,165.617288
08639,1112548,9.925652,-0.425542,-1.266053,0.162768,0.075739,0.226974,-0.545836,-0.163556,0.369384,-166.826784,-82.825945,164.535922
08640,1112648,9.737911,-0.425180,-1.202631,0.142300,0.090981,0.241951,-0.545280,-0.161925,0.366462,-165.585768,-82.843835,163.366444
08641,1112748,9.613243,-0.351873,-1.238385,0.149766,0.117968,0.247947,-0.545265,-0.158911,0.366114,-164.275201,-82.872506,162.131243
08642,1112848,9.404655,-0.270760,-1.171748,0.159519,0.138696,0.243200,-0.545720,-0.155319,0.364293,-162.942391,-82.909787,160.879342
08643,1112948,9.339487,-0.268922,-1.109166,0.157228,0.145314,0.232022,-0.546734,-0.154854,0.365317,-161.637421,-82.949050,159.654271
08644,1113048,9.478167,-0.300223,-1.100207,0.162991,0.172666,0.214049,-0.548160,-0.153167,0.361894,-160.351727,-83.003063,158.452066
08645,1113148,9.645978,-0.277521,-1.108734,0.178868,0.209578,0.196367,-0.548112,-0.152050,0.359446,-159.053952,-83.077098,157.247014
08646,1113248,9.692745,-0.285214,-1.275617,0.194071,0.220611,0.178488,-0.549132,-0.149615,0.361072,-157.780157,-83.157480,156.075076
08647,1113348,9.734958,-0.328298,-1.405845,0.215943,0.192400,0.163046,-0.550593,-0.146530,0.359725,-156.587843,-83.223343,154.997987
08648,1113448,9.864353,-0.416269,-1.544005,0.238699,0.166761,0.154332,-0.549546,-0.144432,0.357328,-155.451030,-83.275192,153.990034
08649,1113548,9.923065,-0.555307,-1.719408,0.266924,0.139281,0.146449,-0.550024,-0.143380,0.356379,-154.374629,-83.312384,153.059275
08650,1113648,9.839697,-0.711040,-1.883361,0.289994,0.101538,0.144613,-0.548458,-0.139747,0.353059,-153.365096,-83.328618,152.209193
08651,1113748,9.695654,-0.839653,-1.848647,0.306630,0.055975,0.146096,-0.549459,-0.136766,0.353710,-152.438521,-83.319531,151.452236
08652,1113848,9.603865,-0.950885,-1.698931,0.313627,0.014667,0.148541,-0.549497,-0.132402,0.356438,-151.595606,-83.287510,150.783522
08653,1113948,9.544018,-1.023456,-1.568041,0.316710,-0.021089,0.148583,-0.546476,-0.129886,0.355067,-150.842197,-83.236420,150.206665
08654,1114048,9.490680,-1.074881,-1.421264,0.319496,-0.044591,0.148361,-0.548927,-0.128256,0.353143,-150.154058,-83.172811,149.697093
08655,1114148,9.430262,-1.037999,-1.319609,0.324637,-0.047623,0.140814,-0.546446,-0.128320,0.353643,-149.512195,-83.109165,149.237041
08656,1114248,9.335883,-0.953709,-1.316663,0.339948,-0.040059,0.128875,-0.546977,-0.126415,0.355744,-148.901468,-83.052136,148.817140
08657,1114348,9.147804,-0.883979,-1.376040,0.364547,-0.030493,0.109880,-0.549436,-0.123812,0.354371,-148.337250,-83.004925,148.458251
08658,1114448,9.020894,-0.801189,-1.439478,0.398366,-0.016453,0.090119,-0.545936,-0.121850,0.353974,-147.803018,-82.970101,148.149063
08659,1114548,9.004398,-0.781739,-1.477064,0.427584,0.002237,0.065108,-0.548457,-0.117921,0.356176,-147.307221,-82.951652,147.895448
08660,1114648,9.077035,-0.803624,-1.517614,0.449983,0.013604,0.042593,-0.549899,-0.114788,0.353828,-146.859250,-82.945412,147.702944
08661,1114748,9.130511,-0.897644,-1.508928,0.462954,0.011544,0.025469,-0.545969,-0.113999,0.356879,-146.475829,-82.943392,147.582970
08662,1114848,9.176255,-0.992936,-1.443570,0.470515,-0.004128,0.014380,-0.547383,-0.110794,0.353033,-146.171161,-82.937320,147.546719
08663,1114948,9.304690,-1.029600,-1.379065,0.465501,-0.024842,0.006208,-0.550411,-0.111839,0.354980,-145.954394,-82.923982,147.596153
08664,1115048,9.481446,-1.091721,-1.365470,0.463283,-0.036627,-0.001815,-0.545929,-0.107450,0.355710,-145.800232,-82.907640,147.707404
08665,1115148,9.675673,-1.109271,-1.262859,0.471164,-0.039586,-0.005860,-0.547434,-0.108447,0.356159,-145.664649,-82.891227,147.841943
08666,1115248,9.905622,-1.100922,-1.279026,0.475477,-0.025192,-0.011492,-0.548942,-0.105482,0.357310,-145.510664,-82.883473,147.960442
08667,1115348,10.070890,-1.110452,-1.333492,0.470688,-0.004468,-0.017196,-0.549967,-0.100580,0.359563,-145.327126,-82.887382,148.046404
08668,1115448,10.162770,-1.020447,-1.303387,0.450236,-0.000825,-0.020786,-0.550924,-0.099472,0.357614,-145.159283,-82.894203,148.136378
08669,1115548,10.287243,-0.906849,-1.276700,0.422561,-0.002875,-0.023876,-0.549934,-0.097518,0.358216,-145.024296,-82.901097,148.243483
08670,1115648,10.353100,-0.798000,-1.159436,0.400179,-0.011487,-0.030075,-0.548939,-0.093572,0.358920,-144.948244,-82.906008,148.397053
08671,1115748,10.292546,-0.665966,-1.098112,0.375396,-0.021228,-0.030958,-0.548437,-0.091089,0.359047,-144.915535,-82.906659,148.579985
08672,1115848,10.151600,-0.578615,-1.095405,0.355525,-0.038277,-0.037218,-0.546941,-0.090117,0.359098,-144.962851,-82.901372,148.832078
08673,1115948,9.964666,-0.541729,-1.093231,0.343572,-0.057522,-0.040148,-0.546443,-0.090124,0.359098,-145.078412,-82.887967,149.146037
08674,1116048,9.807540,-0.550415,-1.106083,0.335553,-0.080584,-0.044902,-0.545963,-0.084724,0.360877,-145.275783,-82.865164,149.537815
08675,1116148,9.679215,-0.619926,-1.084029,0.335253,-0.093645,-0.047764,-0.545011,-0.083864,0.363427,-145.515905,-82.836946,149.972521
08676,1116248,9.544330,-0.716982,-1.078425,0.335541,-0.101501,-0.050622,-0.544549,-0.082972,0.365478,-145.783966,-82.805693,150.435580
08677,1116348,9.427343,-0.792168,-1.056547,0.329777,-0.111215,-0.052582,-0.542025,-0.079949,0.364131,-146.083939,-82.770169,150.927512
08678,1116448,9.385910,-0.858305,-1.039541,0.318358,-0.112704,-0.050581,-0.540592,-0.078149,0.367732,-146.382735,-82.732971,151.411708
08679,1116548,9.334076,-0.932895,-1.070762,0.311869,-0.108831,-0.046712,-0.540508,-0.077434,0.363259,-146.657263,-82.696091,151.867740
08680,1116648,9.286466,-0.956479,-1.146334,0.301585,-0.110649,-0.041834,-0.537052,-0.074098,0.365438,-146.920172,-82.656532,152.306164
08681,1116748,9.280419,-0.906686,-1.202950,0.290670,-0.110669,-0.036098,-0.539074,-0.075135,0.366885,-147.164259,-82.614920,152.719348
08682,1116848,9.393645,-0.896678,-1.244895,0.278153,-0.096045,-0.029610,-0.535608,-0.071277,0.368589,-147.353165,-82.578140,153.069697
08683,1116948,9.496247,-0.885307,-1.288647,0.263568,-0.075031,-0.024179,-0.538071,-0.071663,0.367064,-147.478344,-82.549697,153.347379
08684,1117048,9.563802,-0.879032,-1.389078,0.248534,-0.064155,-0.018230,-0.534598,-0.068777,0.368217,-147.563252,-82.524607,153.575777
08685,1117148,9.555765,-0.872168,-1.421178,0.236713,-0.066505,-0.014390,-0.537071,-0.069188,0.367191,-147.645217,-82.497148,153.794389
08686,1117248,9.609490,-0.892650,-1.382071,0.226763,-0.071169,-0.012497,-0.534136,-0.068383,0.370241,-147.735607,-82.466800,154.015765
08687,1117348,9.682185,-0.935855,-1.351014,0.212335,-0.072785,-0.009481,-0.531663,-0.067973,0.371267,-147.825673,-82.434694,154.228496
08688,1117448,9.735117,-0.984135,-1.333160,0.198899,-0.072032,-0.007304,-0.531632,-0.065907,0.369869,-147.912483,-82.402239,154.430198
08689,1117548,9.747562,-0.953855,-1.413167,0.202803,-0.058230,-0.008170,-0.531671,-0.067000,0.371818,-147.967712,-82.376707,154.602312
08690,1117648,9.710358,-0.917429,-1.426486,0.197702,-0.053488,-0.012677,-0.532664,-0.065490,0.371894,-148.030727,-82.354816,154.779346
08691,1117748,9.732660,-0.912312,-1.444383,0.177798,-0.059679,-0.015154,-0.531637,-0.063441,0.370496,-148.127298,-82.330623,154.978742
08692,1117848,9.792165,-0.905411,-1.373857,0.161557,-0.043898,-0.018781,-0.531636,-0.062942,0.370522,-148.210095,-82.315160,155.154863
08693,1117948,9.768609,-0.872859,-1.351838,0.145449,-0.026511,-0.017392,-0.530714,-0.063151,0.374520,-148.257866,-82.307714,155.286333
08694,1118048,9.674398,-0.796404,-1.365680,0.129654,-0.030152,-0.013801,-0.530696,-0.063601,0.373495,-148.309663,-82.297391,155.412735
08695,1118148,9.690094,-0.763196,-1.226342,0.130480,-0.039076,-0.011197,-0.531223,-0.063665,0.374995,-148.371145,-82.281912,155.549392
08696,1118248,9.762255,-0.770854,-1.191067,0.134479,-0.020485,-0.010931,-0.528733,-0.064701,0.374945,-148.387915,-82.275409,155.643245
08697,1118348,9.832409,-0.840026,-1.199179,0.136712,0.008229,-0.010141,-0.528241,-0.062740,0.375546,-148.336918,-82.282676,155.670006
08698,1118448,9.815109,-0.860419,-1.164097,0.140266,0.030818,-0.008105,-0.529198,-0.061133,0.373623,-148.226237,-82.300342,155.638598
08699,1118548,9.820297,-0.832678,-1.049787,0.132512,0.058555,-0.006893,-0.530672,-0.060065,0.372674,-148.053011,-82.331127,155.539605
08700,1118648,9.846367,-0.854674,-0.972361,0.120495,0.073561,-0.005814,-0.529220,-0.058216,0.375275,-147.847571,-82.368828,155.401179
08701,1118748,9.846866,-0.842875,-0.920551,0.099287,0.074445,-0.004711,-0.530689,-0.059615,0.373698,-147.646540,-82.406556,155.254964
08702,1118848,9.844739,-0.828166,-0.870985,0.083691,0.070449,-0.003531,-0.530676,-0.057598,0.373300,-147.457686,-82.441924,155.112041
08703,1118948,9.796756,-0.820517,-0.873823,0.070138,0.076735,-0.003739,-0.529715,-0.056216,0.375376,-147.261049,-82.480328,154.953456
08704,1119048,9.742730,-0.806827,-0.940351,0.053403,0.088245,-0.005887,-0.530198,-0.058152,0.374275,-147.052744,-82.524867,154.773454
08705,1119148,9.657579,-0.805000,-0.997118,0.037318,0.091108,-0.006623,-0.528729,-0.057252,0.375825,-146.847174,-82.570924,154.586940
08706,1119248,9.599386,-0.776773,-1.042567,0.024939,0.092279,-0.010313,-0.529207,-0.055701,0.374902,-146.657057,-82.618616,154.408879
08707,1119348,9.568727,-0.749697,-1.028647,0.012417,0.090175,-0.012644,-0.530702,-0.056176,0.374876,-146.485560,-82.665964,154.242382
08708,1119448,9.549945,-0.767656,-0.975555,0.002796,0.082926,-0.016723,-0.528684,-0.057630,0.373301,-146.350601,-82.711086,154.107185
08709,1119548,9.609491,-0.772514,-0.894883,-0.008367,0.073696,-0.019530,-0.530722,-0.057220,0.375825,-146.253990,-82.752666,154.004218
08710,1119648,9.702619,-0.812247,-0.815910,-0.013947,0.065305,-0.021383,-0.529193,-0.053186,0.374529,-146.187541,-82.790823,153.928452
08711,1119748,9.769617,-0.865962,-0.896201,-0.017280,0.056367,-0.022290,-0.528183,-0.056143,0.373377,-146.148321,-82.825005,153.878221
08712,1119848,9.717283,-0.957260,-1.078974,-0.005269,0.040041,-0.024007,-0.528157,-0.057067,0.371827,-146.149857,-82.851961,153.876018
08713,1119948,9.606392,-0.985336,-1.158095,0.012507,-0.001293,-0.021003,-0.527666,-0.055604,0.372403,-146.235054,-82.858274,153.968405
08714,1120048,9.523407,-1.074266,-1.161785,0.019248,-0.039370,-0.018759,-0.528165,-0.056095,0.372378,-146.404364,-82.845686,154.149472
08715,1120148,9.487020,-1.118791,-1.203505,0.025248,-0.071039,-0.018526,-0.526222,-0.058240,0.374776,-146.648015,-82.817800,154.408955
08716,1120248,9.462690,-1.109226,-1.209817,0.032344,-0.102631,-0.014798,-0.526238,-0.056793,0.375852,-146.949477,-82.773436,154.730844
08717,1120348,9.423818,-1.012506,-1.174250,0.043797,-0.124689,-0.011473,-0.525696,-0.058175,0.373276,-147.281516,-82.717194,155.090221
08718,1120448,9.446872,-0.967955,-1.094390,0.055931,-0.137228,-0.010637,-0.523293,-0.060424,0.377674,-147.628005,-82.654366,155.471236
08719,1120548,9.488091,-0.877438,-1.036017,0.069152,-0.136271,-0.016987,-0.524257,-0.057845,0.376301,-147.982249,-82.593642,155.867772
08720,1120648,9.550118,-0.819399,-1.073083,0.084869,-0.131413,-0.024429,-0.522827,-0.057539,0.379826,-148.337957,-82.537216,156.274925
08721,1120748,9.625961,-0.808069,-1.121412,0.095304,-0.130076,-0.034154,-0.520840,-0.060560,0.379674,-148.715042,-82.484015,156.709726
08722,1120848,9.645583,-0.813011,-1.152948,0.099432,-0.128224,-0.045137,-0.521301,-0.060954,0.377649,-149.120605,-82.434583,157.175697
08723,1120948,9.661385,-0.857973,-1.188495,0.098686,-0.129118,-0.055047,-0.522335,-0.061035,0.379648,-149.559474,-82.387153,157.674894
08724,1121048,9.677020,-0.940636,-1.194256,0.095315,-0.132088,-0.058843,-0.521866,-0.061613,0.381122,-150.014737,-82.338830,158.188753
08725,1121148,9.665223,-1.006014,-1.181673,0.091773,-0.133252,-0.060260,-0.520416,-0.060761,0.383672,-150.473533,-82.289783,158.704202
08726,1121248,9.680869,-1.021028,-1.157842,0.089892,-0.132593,-0.056643,-0.519938,-0.061813,0.384621,-150.912535,-82.239509,159.198668
08727,1121348,9.663008,-1.005044,-1.149427,0.092075,-0.131955,-0.053918,-0.517939,-0.063316,0.384046,-151.332955,-82.188300,159.675716
08728,1121448,9.733589,-0.943644,-1.100825,0.088356,-0.124906,-0.058181,-0.517945,-0.061347,0.384647,-151.751352,-82.141333,160.148645
08729,1121548,9.788342,-0.911134,-1.059666,0.080931,-0.115378,-0.060632,-0.517990,-0.060471,0.387197,-152.159239,-82.099380,160.606735
08730,1121648,9.844942,-0.821382,-0.989239,0.072467,-0.098056,-0.062704,-0.517544,-0.064087,0.389518,-152.542119,-82.066340,161.034735
08731,1121748,9.872470,-0.773168,-0.995066,0.069407,-0.082771,-0.071565,-0.518013,-0.063010,0.388070,-152.927198,-82.043019,161.463228
08732,1121848,9.889607,-0.723546,-1.010059,0.065738,-0.064821,-0.079647,-0.516571,-0.061185,0.391171,-153.308548,-82.030572,161.885858
08733,1121948,9.890519,-0.732360,-1.030492,0.061260,-0.045628,-0.087667,-0.517039,-0.060109,0.389722,-153.685809,-82.029632,162.301787
08734,1122048,9.858751,-0.769416,-1.082535,0.051850,-0.034564,-0.094744,-0.515594,-0.061748,0.392145,-154.074590,-82.035785,162.723912
08735,1122148,9.835167,-0.793350,-1.097825,0.036993,-0.026681,-0.099885,-0.518572,-0.060680,0.391695,-154.477568,-82.046882,163.151779
08736,1122248,9.831290,-0.825759,-1.079660,0.023761,-0.020296,-0.100898,-0.515621,-0.061321,0.393670,-154.881873,-82.061118,163.573334
08737,1122348,9.823249,-0.820890,-1.132716,0.020521,-0.002588,-0.094169,-0.517096,-0.060752,0.392695,-155.233792,-82.082542,163.940117
08738,1122448,9.759597,-0.706998,-1.161844,0.017766,0.010053,-0.093772,-0.517162,-0.061418,0.396169,-155.566116,-82.110154,164.285510
08739,1122548,9.727288,-0.650948,-1.147559,0.008870,0.010506,-0.089292,-0.517623,-0.061812,0.394144,-155.888168,-82.136677,164.615371
08740,1122648,9.733825,-0.626763,-1.092613,-0.010780,0.009747,-0.094393,-0.515139,-0.059883,0.394746,-156.244377,-82.163721,164.968332
08741,1122748,9.750812,-0.647698,-0.999548,-0.030362,0.018854,-0.096923,-0.518619,-0.061298,0.394169,-156.608833,-82.195827,165.318277
08742,1122848,9.828993,-0.675688,-0.942590,-0.046405,0.032388,-0.096010,-0.515160,-0.061426,0.395669,-156.959629,-82.234560,165.645140
08743,1122948,9.901506,-0.638432,-0.869193,-0.055742,0.033305,-0.099834,-0.516722,-0.063066,0.399091,-157.332538,-82.274353,165.988904
08744,1123048,9.984089,-0.598621,-0.981386,-0.064950,0.051288,-0.102754,-0.517212,-0.063532,0.398566,-157.696876,-82.324011,166.318668
08745,1123148,10.010847,-0.589432,-1.065656,-0.068254,0.068422,-0.106660,-0.518706,-0.063508,0.398566,-158.055674,-82.383328,166.640896
08746,1123248,9.998830,-0.524683,-1.109351,-0.074879,0.081307,-0.111718,-0.521692,-0.061966,0.398641,-158.423429,-82.450305,166.968287
08747,1123348,9.964243,-0.454701,-1.095399,-0.084534,0.097400,-0.113651,-0.521210,-0.060527,0.399717,-158.785364,-82.525996,167.284175
08748,1123448,9.936389,-0.407420,-1.083835,-0.098814,0.104955,-0.117716,-0.519728,-0.062070,0.400141,-159.167325,-82.606297,167.611949
08749,1123548,9.951803,-0.346070,-1.012919,-0.115415,0.111325,-0.120834,-0.522194,-0.063951,0.398539,-159.569718,-82.690354,167.950670
08750,1123648,9.975421,-0.336853,-0.950024,-0.127766,0.125365,-0.124071,-0.522710,-0.063493,0.399564,-159.979806,-82.782297,168.289946
08751,1123748,10.039498,-0.303063,-0.911163,-0.137031,0.142325,-0.127677,-0.522709,-0.062995,0.399589,-160.394311,-82.883776,168.628250
08752,1123848,10.029870,-0.267971,-0.911378,-0.141627,0.165288,-0.130162,-0.522716,-0.066980,0.399386,-160.798021,-82.997838,168.952939
08753,1123948,9.992558,-0.265072,-0.933070,-0.142300,0.179322,-0.131268,-0.525705,-0.066933,0.399385,-161.197618,-83.119431,169.273011
08754,1124048,9.907148,-0.255692,-0.960316,-0.134700,0.192798,-0.133783,-0.528708,-0.064443,0.400511,-161.596665,-83.248533,169.596827
08755,1124148,9.795199,-0.255944,-0.985556,-0.121335,0.198344,-0.135185,-0.528239,-0.065519,0.401960,-162.000147,-83.380634,169.932725
08756,1124248,9.735247,-0.299014,-0.994076,-0.113363,0.199691,-0.133065,-0.529699,-0.066894,0.399884,-162.401796,-83.512821,170.271285
08757,1124348,9.699666,-0.337170,-0.983632,-0.109129,0.206770,-0.126066,-0.534141,-0.064235,0.398010,-162.771160,-83.647416,170.579707
08758,1124448,9.700469,-0.280734,-0.992478,-0.110980,0.214634,-0.115968,-0.531199,-0.064902,0.400485,-163.093394,-83.784410,170.839563
08759,1124548,9.776292,-0.161892,-0.993212,-0.121476,0.217505,-0.101597,-0.534143,-0.065730,0.397934,-163.356327,-83.920455,171.033652
08760,1124648,9.806769,0.034828,-1.021291,-0.141828,0.228545,-0.089195,-0.535641,-0.067699,0.397832,-163.558878,-84.060455,171.155230
08761,1124748,9.877504,0.266754,-0.942869,-0.162984,0.217344,-0.076761,-0.536592,-0.068559,0.395282,-163.732037,-84.192252,171.235016
08762,1124848,9.897863,0.469608,-0.907232,-0.187549,0.214799,-0.068693,-0.539621,-0.064647,0.397983,-163.884841,-84.321339,171.280138
08763,1124948,9.914107,0.544456,-0.998728,-0.196217,0.202991,-0.070584,-0.542116,-0.067098,0.397855,-164.077301,-84.444210,171.360062
08764,1125048,9.916555,0.574644,-0.971684,-0.194070,0.183982,-0.075373,-0.541574,-0.068480,0.395280,-164.333618,-84.557320,171.505311
08765,1125148,9.906351,0.481675,-0.819325,-0.174923,0.170383,-0.082148,-0.543031,-0.068360,0.393281,-164.649781,-84.663893,171.721624
08766,1125248,9.915801,0.344102,-0.648718,-0.150554,0.166040,-0.089937,-0.547058,-0.071383,0.395126,-165.016907,-84.769115,172.003074
08767,1125348,9.933546,0.246362,-0.464211,-0.138061,0.181719,-0.094348,-0.546085,-0.068481,0.396778,-165.392099,-84.883507,172.299742
08768,1125448,9.927490,0.225164,-0.511335,-0.133371,0.194107,-0.091057,-0.549029,-0.069310,0.394228,-165.739086,-85.004139,172.570718
08769,1125548,9.849631,0.267652,-0.609058,-0.143965,0.210128,-0.084622,-0.547473,-0.071656,0.390602,-166.039599,-85.132643,172.788881
08770,1125648,9.703421,0.280287,-0.751611,-0.152723,0.204812,-0.074607,-0.550461,-0.070613,0.390652,-166.300838,-85.256726,172.962528
08771,1125748,9.631944,0.309340,-0.799125,-0.161491,0.184487,-0.064563,-0.551477,-0.071641,0.391601,-166.543347,-85.368074,173.112283
08772,1125848,9.561767,0.394756,-0.770874,-0.168789,0.163233,-0.057865,-0.550934,-0.072526,0.389051,-166.787950,-85.466635,173.259889
08773,1125948,9.594831,0.287770,-0.738933,-0.170509,0.130431,-0.053476,-0.554409,-0.070951,0.388626,-167.065206,-85.546267,173.439216
08774,1126048,9.547416,0.294632,-0.688729,-0.170712,0.099452,-0.049683,-0.550963,-0.073096,0.390525,-167.374177,-85.608037,173.650192
08775,1126148,9.459117,0.338413,-0.547189,-0.169219,0.085217,-0.049058,-0.555435,-0.077461,0.389295,-167.708198,-85.661677,173.887107
08776,1126248,9.454795,0.361683,-0.433926,-0.165815,0.089674,-0.047984,-0.553406,-0.077396,0.387297,-168.032372,-85.717586,174.116061
08777,1126348,9.433570,0.379263,-0.412547,-0.164003,0.102128,-0.041651,-0.555345,-0.078714,0.384221,-168.295190,-85.779652,174.284487
08778,1126448,9.461660,0.412254,-0.487308,-0.160475,0.107597,-0.038130,-0.555873,-0.079775,0.385669,-168.526730,-85.844332,174.423536
08779,1126548,9.525700,0.416948,-0.526812,-0.155837,0.097638,-0.029035,-0.554887,-0.080313,0.386144,-168.705820,-85.902357,174.512624
08780,1126648,9.613375,0.463601,-0.603940,-0.142587,0.083622,-0.017696,-0.556333,-0.079173,0.383696,-168.813171,-85.951225,174.537362
08781,1126748,9.636129,0.457517,-0.691428,-0.128345,0.065492,-0.005194,-0.556864,-0.082227,0.385042,-168.842435,-85.988513,174.491962
08782,1126848,9.640590,0.393570,-0.763791,-0.106823,0.044366,0.006245,-0.554291,-0.082547,0.380519,-168.800699,-86.012655,174.387721
08783,1126948,9.595887,0.281365,-0.815695,-0.089801,0.021232,0.013075,-0.558344,-0.084646,0.383915,-168.730490,-86.023024,174.264690
08784,1127048,9.536299,0.087824,-0.817402,-0.082204,-0.011680,0.019501,-0.552855,-0.084210,0.383442,-168.657025,-86.014166,174.142741
08785,1127148,9.524804,-0.088991,-0.789375,-0.066577,-0.035064,0.025563,-0.554847,-0.084178,0.383442,-168.564415,-85.991473,174.010569
08786,1127248,9.432853,-0.142610,-0.719050,-0.027786,-0.044259,0.035854,-0.552344,-0.082201,0.383045,-168.384017,-85.962415,173.812667
08787,1127348,9.276011,-0.116331,-0.590743,-0.008542,-0.063547,0.043229,-0.553844,-0.085665,0.382866,-168.169040,-85.921630,173.591142
08788,1127448,9.228927,-0.074130,-0.473261,0.005344,-0.073022,0.052670,-0.552847,-0.085183,0.382892,-167.892834,-85.874348,173.316195
08789,1127548,9.274616,0.013761,-0.345299,0.011836,-0.056736,0.056274,-0.551346,-0.086677,0.382316,-167.564017,-85.835648,172.992208
08790,1127648,9.309905,0.143914,-0.353828,-0.008209,-0.037323,0.064109,-0.550329,-0.085150,0.381393,-167.159496,-85.806675,172.580774
08791,1127748,9.330084,0.293112,-0.507225,-0.026184,-0.035362,0.070035,-0.549808,-0.088075,0.379742,-166.722703,-85.777814,172.126614
08792,1127848,9.418184,0.469344,-0.649741,-0.032708,-0.038020,0.072511,-0.549853,-0.087199,0.382291,-166.282170,-85.746890,171.664901
08793,1127948,9.483357,0.582318,-0.830106,-0.027863,-0.037118,0.071471,-0.550321,-0.086122,0.380843,-165.851625,-85.716352,171.215923
08794,1128048,9.571604,0.567200,-0.986647,-0.006949,-0.050723,0.061816,-0.547832,-0.087158,0.380793,-165.512428,-85.679403,170.870496
08795,1128148,9.625279,0.430682,-1.110895,0.017009,-0.064784,0.052596,-0.549854,-0.088195,0.382241,-165.259477,-85.635852,170.625270
08796,1128248,9.659090,0.233794,-1.197220,0.037477,-0.101047,0.043241,-0.547351,-0.086218,0.381843,-165.136215,-85.573516,170.521825
08797,1128348,9.765031,-0.006122,-1.159630,0.049890,-0.143038,0.036113,-0.546855,-0.087222,0.381793,-165.137924,-85.488957,170.550836
08798,1128448,9.915602,-0.211443,-0.961151,0.048714,-0.169629,0.034655,-0.546885,-0.088789,0.383216,-165.198166,-85.389878,170.637890
08799,1128548,10.063404,-0.329439,-0.857759,0.045234,-0.177858,0.036044,-0.544439,-0.087455,0.385792,-165.262448,-85.286027,170.727015
08800,1128648,10.165321,-0.363651,-0.781892,0.046714,-0.172946,0.041055,-0.543915,-0.088885,0.384216,-165.281105,-85.184162,170.771230
08801,1128748,10.205360,-0.338125,-0.774001,0.042414,-0.159768,0.045037,-0.543423,-0.086924,0.384818,-165.252889,-85.089018,170.765943
08802,1128848,10.148214,-0.310935,-0.699807,0.026772,-0.140736,0.054923,-0.540964,-0.089029,0.386216,-165.139723,-85.002971,170.666398
08803,1128948,10.169095,-0.240281,-0.654983,-0.007250,-0.116565,0.061710,-0.543984,-0.086088,0.388367,-164.966845,-84.929282,170.487333
08804,1129048,10.174616,-0.186748,-0.618330,-0.044660,-0.092985,0.063058,-0.539944,-0.086505,0.385344,-164.772537,-84.868388,170.265215
08805,1129148,10.157306,-0.123885,-0.617139,-0.081221,-0.076106,0.063759,-0.541951,-0.084031,0.386470,-164.571321,-84.816651,170.015105
08806,1129248,10.024716,-0.059442,-0.612498,-0.105659,-0.069912,0.060025,-0.539466,-0.087059,0.386319,-164.400554,-84.768839,169.781483
08807,1129348,9.845189,-0.062583,-0.652722,-0.115731,-0.072967,0.051070,-0.537999,-0.087156,0.387819,-164.297796,-84.720678,169.610336
08808,1129448,9.722926,-0.142208,-0.746662,-0.118592,-0.072844,0.043960,-0.538480,-0.082639,0.387547,-164.240981,-84.673670,169.483665
08809,1129548,9.615023,-0.177527,-0.837285,-0.105153,-0.083128,0.037527,-0.539500,-0.085163,0.388419,-164.232868,-84.621986,169.413628
08810,1129648,9.554063,-0.215498,-0.857497,-0.096122,-0.088056,0.033369,-0.537030,-0.086745,0.389344,-164.252540,-84.568231,169.376691
08811,1129748,9.541291,-0.281132,-0.898477,-0.085870,-0.084236,0.028433,-0.539473,-0.085589,0.386894,-164.288683,-84.517350,169.362197
08812,1129848,9.595914,-0.323350,-0.971707,-0.073320,-0.088758,0.028405,-0.537488,-0.084648,0.387446,-164.324845,-84.463978,169.354946
08813,1129948,9.666786,-0.366145,-0.992550,-0.060705,-0.095286,0.027300,-0.537032,-0.082285,0.390072,-164.370049,-84.407172,169.364049
08814,1130048,9.727144,-0.337945,-0.976520,-0.051792,-0.100881,0.027453,-0.536026,-0.082277,0.389572,-164.417467,-84.347252,169.380511
08815,1130148,9.812305,-0.332722,-0.993434,-0.052419,-0.102283,0.026845,-0.535017,-0.080276,0.389175,-164.470059,-84.286648,169.401816
08816,1130248,9.893490,-0.291074,-1.027788,-0.058659,-0.097463,0.024881,-0.531586,-0.080476,0.392174,-164.528856,-84.229002,169.425766
08817,1130348,9.955883,-0.264349,-1.043582,-0.071321,-0.089939,0.025227,-0.533628,-0.082557,0.394571,-164.580931,-84.175453,169.435668
08818,1130448,9.985615,-0.260774,-1.002502,-0.085869,-0.075474,0.025035,-0.535570,-0.079914,0.392199,-164.620377,-84.129923,169.424495
08819,1130548,9.935352,-0.253979,-0.983451,-0.092487,-0.061202,0.028645,-0.535038,-0.081320,0.390123,-164.623166,-84.091728,169.372656
08820,1130648,9.850257,-0.301654,-1.029269,-0.093184,-0.051941,0.028857,-0.534988,-0.079705,0.387701,-164.611994,-84.058615,169.306377
08821,1130748,9.777388,-0.388745,-1.004512,-0.083860,-0.049122,0.031222,-0.534568,-0.081899,0.391598,-164.579305,-84.026695,169.223837
08822,1130848,9.755663,-0.458346,-0.976346,-0.067987,-0.045040,0.029971,-0.536503,-0.080726,0.388649,-164.538748,-83.997213,169.142540
08823,1130948,9.789617,-0.532679,-0.966741,-0.050369,-0.035649,0.026849,-0.534564,-0.079906,0.391699,-164.491345,-83.973386,169.064519
08824,1131048,9.836009,-0.597756,-0.950816,-0.039385,-0.026750,0.024501,-0.534564,-0.079408,0.391724,-164.437404,-83.954822,168.986271
08825,1131148,9.845098,-0.579502,-0.961116,-0.034073,-0.018289,0.022500,-0.536038,-0.078838,0.390750,-164.378869,-83.941227,168.906481
08826,1131248,9.882602,-0.533955,-0.968176,-0.030580,-0.004858,0.021536,-0.539551,-0.077858,0.392299,-164.304009,-83.935180,168.812301
08827,1131348,9.855551,-0.474334,-0.976536,-0.026192,0.001444,0.020252,-0.539524,-0.077786,0.390800,-164.224194,-83.932792,168.715677
08828,1131448,9.831149,-0.427652,-0.982908,-0.018574,0.010672,0.018853,-0.542528,-0.076292,0.391875,-164.133703,-83.935694,168.612718
08829,1131548,9.838626,-0.415562,-1.002442,-0.013263,0.015481,0.018642,-0.542509,-0.075745,0.390900,-164.034007,-83.941259,168.503569
08830,1131648,9.828919,-0.432899,-1.021790,-0.005860,0.019427,0.021274,-0.541532,-0.076308,0.391875,-163.910276,-83.948557,168.374527
08831,1131748,9.845699,-0.458643,-0.984186,-0.001080,0.031046,0.021852,-0.544529,-0.075786,0.392399,-163.762887,-83.962123,168.224461
08832,1131848,9.866213,-0.470156,-0.941962,0.001695,0.042809,0.022933,-0.545044,-0.074830,0.393449,-163.589532,-83.981938,168.049900
08833,1131948,9.918221,-0.461512,-0.936955,0.012487,0.057126,0.024885,-0.544020,-0.074774,0.391950,-163.376269,-84.009237,167.841447
08834,1132048,9.911375,-0.372545,-0.961590,0.025435,0.077111,0.024195,-0.548014,-0.074734,0.392449,-163.125445,-84.047525,167.602705
08835,1132148,9.833271,-0.353047,-0.942822,0.015833,0.072021,0.023867,-0.549014,-0.071753,0.393101,-162.886988,-84.082973,167.370885
08836,1132248,9.780959,-0.347655,-0.992658,0.007020,0.066503,0.020225,-0.547488,-0.069712,0.391704,-162.679233,-84.115923,167.164871
08837,1132348,9.784720,-0.352268,-0.927147,0.005018,0.075050,0.020089,-0.552483,-0.071650,0.392100,-162.456611,-84.153488,166.942775
08838,1132448,9.704706,-0.333120,-1.027306,-0.001474,0.078864,0.023771,-0.551952,-0.069094,0.390728,-162.208546,-84.192400,166.691381
08839,1132548,9.582398,-0.339622,-1.068952,0.001776,0.058741,0.028423,-0.555477,-0.069633,0.392701,-161.965497,-84.219407,166.446915
08840,1132648,9.580926,-0.348473,-1.048562,0.012070,0.054363,0.031788,-0.555474,-0.067641,0.392802,-161.703898,-84.243319,166.189744
08841,1132748,9.599468,-0.367337,-1.067889,0.023307,0.056843,0.031046,-0.559920,-0.067473,0.390801,-161.433197,-84.268588,165.929908
08842,1132848,9.626278,-0.389538,-1.052050,0.034585,0.062534,0.030221,-0.558414,-0.066476,0.390353,-161.147613,-84.296968,165.661625
08843,1132948,9.665192,-0.395702,-0.984447,0.041633,0.069856,0.026314,-0.558956,-0.065094,0.392928,-160.862661,-84.329908,165.398053
08844,1133048,9.717599,-0.409822,-1.034536,0.038559,0.062610,0.022832,-0.561408,-0.064460,0.390953,-160.609292,-84.359460,165.164467
08845,1133148,9.768661,-0.400391,-0.963785,0.029257,0.050136,0.021816,-0.557917,-0.062024,0.391082,-160.388687,-84.382372,164.958463
08846,1133248,9.855057,-0.343278,-0.876685,0.025848,0.047077,0.019280,-0.559413,-0.062997,0.391030,-160.188313,-84.404049,164.770833
08847,1133348,9.850828,-0.291666,-0.874999,0.021316,0.057765,0.015709,-0.560896,-0.061455,0.390606,-159.987267,-84.432117,164.579924
08848,1133448,9.816607,-0.241576,-0.935437,0.017589,0.068755,0.013337,-0.560374,-0.058425,0.389759,-159.777110,-84.466497,164.377720
08849,1133548,9.709331,-0.220078,-0.972772,0.011555,0.070452,0.012208,-0.563848,-0.061809,0.388581,-159.570644,-84.501940,164.175753
08850,1133648,9.615003,-0.255731,-0.993855,0.008206,0.062860,0.012730,-0.561855,-0.061342,0.388607,-159.376573,-84.533134,163.984315
08851,1133748,9.609027,-0.294645,-0.940579,0.003703,0.058201,0.011581,-0.564889,-0.060917,0.391130,-159.199323,-84.562003,163.807188
08852,1133848,9.601544,-0.321536,-0.890728,-0.000392,0.051996,0.008210,-0.561835,-0.060796,0.387633,-159.055013,-84.588190,163.660801
08853,1133948,9.606224,-0.362380,-0.860748,-0.002649,0.046073,0.007726,-0.562295,-0.060193,0.385659,-158.926270,-84.611275,163.528757
08854,1134048,9.649817,-0.359477,-0.873241,0.001903,0.044212,0.005794,-0.564342,-0.059310,0.388708,-158.808880,-84.633735,163.410743
08855,1134148,9.698107,-0.331090,-0.840727,0.004750,0.042056,0.001148,-0.562842,-0.061302,0.388107,-158.720175,-84.655988,163.323183
08856,1134248,9.745961,-0.350812,-0.883307,0.003185,0.047437,-0.002546,-0.563310,-0.060226,0.386658,-158.640738,-84.681869,163.244034
08857,1134348,9.722811,-0.317233,-0.851073,0.008732,0.040619,-0.003471,-0.561835,-0.060297,0.387658,-158.578073,-84.704296,163.184922
08858,1134448,9.702840,-0.301624,-0.814105,0.011523,0.033779,-0.001074,-0.566270,-0.059608,0.385183,-158.514995,-84.722566,163.127002
08859,1134548,9.699336,-0.312236,-0.863873,0.016079,0.030227,-0.002225,-0.564339,-0.057815,0.388784,-158.463666,-84.739179,163.083502
08860,1134648,9.689546,-0.331959,-0.917007,0.017414,0.020169,-0.001833,-0.563762,-0.060097,0.384159,-158.432072,-84.750345,163.060589
08861,1134748,9.711727,-0.361555,-0.887387,0.021079,0.007454,-0.002678,-0.561301,-0.061704,0.385583,-158.432368,-84.754911,163.071808
08862,1134848,9.727200,-0.373575,-0.830258,0.032105,0.005726,-0.004399,-0.559786,-0.060184,0.384660,-158.440312,-84.758917,163.097055
08863,1134948,9.742111,-0.369228,-0.805801,0.042585,0.008050,-0.004841,-0.559299,-0.061213,0.385109,-158.439499,-84.764254,163.119542
08864,1135048,9.730053,-0.343745,-0.791974,0.048678,0.008923,-0.007284,-0.561827,-0.061270,0.387108,-158.447424,-84.770571,163.154308
08865,1135148,9.711112,-0.328552,-0.811091,0.052870,0.011282,-0.005915,-0.560793,-0.061190,0.385108,-158.439583,-84.777855,163.175656
08866,1135248,9.727442,-0.298702,-0.820924,0.058975,0.006383,-0.005973,-0.561301,-0.061704,0.385583,-158.439899,-84.782542,163.208703
08867,1135348,9.739167,-0.306370,-0.818316,0.069721,0.003736,-0.006051,-0.560277,-0.061647,0.384084,-158.440648,-84.785833,163.248367
08868,1135448,9.746523,-0.301904,-0.826773,0.080953,0.002693,-0.005630,-0.560796,-0.062684,0.385032,-158.434935,-84.788479,163.288001
08869,1135548,9.764724,-0.311505,-0.820736,0.090066,0.001318,-0.003803,-0.560829,-0.060289,0.387159,-158.416519,-84.790009,163.320122
08870,1135648,9.768671,-0.295750,-0.798137,0.099249,0.002593,-0.001194,-0.561283,-0.061656,0.384583,-158.374650,-84.791668,163.333972
08871,1135748,9.745589,-0.276834,-0.780222,0.105620,0.005987,0.001574,-0.559796,-0.060707,0.385134,-158.305077,-84.794552,163.323666
08872,1135848,9.738710,-0.272840,-0.796346,0.108196,0.007164,0.006322,-0.558293,-0.061205,0.384609,-158.203499,-84.797052,163.282701
08873,1135948,9.747696,-0.236860,-0.798696,0.110796,0.010397,0.009685,-0.556275,-0.062160,0.383060,-158.073144,-84.800547,163.214330
08874,1136048,9.771907,-0.191612,-0.790607,0.117749,0.016143,0.011100,-0.557723,-0.057058,0.381314,-157.916842,-84.806776,163.123895
08875,1136148,9.788720,-0.175427,-0.796362,0.126527,0.020354,0.013533,-0.560308,-0.057758,0.386286,-157.730971,-84.814689,163.008808
08876,1136248,9.806517,-0.143286,-0.760236,0.135486,0.025337,0.013369,-0.559278,-0.060168,0.384160,-157.528467,-84.825245,162.882163
08877,1136348,9.839908,-0.099986,-0.742031,0.140888,0.023513,0.011770,-0.558766,-0.057163,0.383813,-157.336039,-84.835149,162.768729
08878,1136448,9.849796,-0.055013,-0.709572,0.141336,0.023614,0.012889,-0.557753,-0.058127,0.382763,-157.136016,-84.844828,162.647909
08879,1136548,9.811562,-0.032716,-0.716151,0.139739,0.023707,0.011764,-0.557742,-0.057106,0.382314,-156.942713,-84.854772,162.532899
08880,1136648,9.811310,-0.071033,-0.684892,0.133619,0.021554,0.012820,-0.557266,-0.054197,0.383966,-156.751594,-84.863312,162.416543
08881,1136748,9.824597,-0.055451,-0.735286,0.147024,0.028356,0.014351,-0.556768,-0.054205,0.383966,-156.526086,-84.875047,162.273353
08882,1136848,9.754906,-0.026364,-0.798064,0.163454,0.046146,0.014108,-0.555743,-0.053650,0.382492,-156.245996,-84.896122,162.084794
08883,1136948,9.654292,-0.092186,-0.780568,0.158718,0.030037,0.017442,-0.557281,-0.052253,0.385067,-155.989263,-84.907907,161.916947
08884,1137048,9.698579,-0.143073,-0.686824,0.148770,0.011473,0.017694,-0.557278,-0.050758,0.385143,-155.784797,-84.909866,161.795838
08885,1137148,9.774406,-0.201325,-0.573977,0.139161,0.007838,0.021431,-0.556238,-0.051650,0.382594,-155.573484,-84.909011,161.662322
08886,1137248,9.787716,-0.168948,-0.549969,0.129682,0.019280,0.026291,-0.559732,-0.050622,0.383143,-155.308585,-84.912916,161.469544
08887,1137348,9.746415,-0.092681,-0.662968,0.135571,0.019093,0.033124,-0.556267,-0.047262,0.384822,-155.000608,-84.914996,161.236889
08888,1137448,9.697966,-0.045404,-0.832570,0.138375,0.025795,0.034770,-0.554756,-0.048234,0.383772,-154.662837,-84.920036,160.975910
08889,1137548,9.663523,-0.050468,-0.858398,0.139868,0.021708,0.037181,-0.555201,-0.049576,0.380696,-154.321076,-84.922230,160.711761
08890,1137648,9.665572,-0.077474,-0.822018,0.148228,0.019089,0.035360,-0.554724,-0.046169,0.382374,-153.992292,-84.923393,160.465428
08891,1137748,9.652041,-0.069376,-0.758037,0.154440,0.013541,0.032874,-0.557736,-0.043204,0.384025,-153.690093,-84.922213,160.249335
08892,1137848,9.633187,-0.034836,-0.757955,0.156054,-0.003968,0.028628,-0.556708,-0.046611,0.381848,-153.462009,-84.913044,160.108550
08893,1137948,9.648131,-0.068449,-0.725383,0.147236,-0.024522,0.023029,-0.556232,-0.043204,0.383526,-153.331030,-84.894746,160.060157
08894,1138048,9.655630,-0.092983,-0.679690,0.138481,-0.039840,0.017669,-0.555725,-0.043188,0.383026,-153.280295,-84.869982,160.087271
08895,1138148,9.665613,-0.115535,-0.661650,0.134317,-0.041230,0.014449,-0.556259,-0.042778,0.385050,-153.254327,-84.845342,160.136839
08896,1138248,9.655917,-0.156842,-0.648892,0.133756,-0.032419,0.009763,-0.551738,-0.042254,0.383078,-153.229993,-84.826423,160.187711
08897,1138348,9.614884,-0.205461,-0.710933,0.135823,-0.013397,0.006651,-0.554719,-0.043179,0.382526,-153.167853,-84.818040,160.201798
08898,1138448,9.541345,-0.286750,-0.762314,0.137041,-0.000118,0.003379,-0.556201,-0.041637,0.382102,-153.085655,-84.817294,160.196440
08899,1138548,9.516985,-0.368349,-0.775709,0.142839,0.001686,0.000083,-0.554687,-0.040616,0.381154,-153.013551,-84.818323,160.204550
08900,1138648,9.464229,-0.436257,-0.781802,0.146225,-0.003414,-0.006305,-0.551220,-0.041716,0.382104,-152.990082,-84.818409,160.263446
08901,1138748,9.438741,-0.550705,-0.723964,0.149913,-0.021376,-0.008595,-0.552681,-0.038630,0.380756,-153.028765,-84.809918,160.386884
08902,1138848,9.360451,-0.661286,-0.645908,0.150001,-0.036617,-0.012464,-0.552241,-0.039779,0.383704,-153.132129,-84.794629,160.575345
08903,1138948,9.315637,-0.777887,-0.532761,0.142685,-0.042943,-0.008819,-0.552222,-0.039731,0.382705,-153.236156,-84.775131,160.760303
08904,1139048,9.273246,-0.870262,-0.518718,0.131418,-0.032829,-0.006611,-0.552694,-0.040648,0.381154,-153.304799,-84.760213,160.903292
08905,1139148,9.203273,-0.892908,-0.439979,0.125887,-0.023643,0.000481,-0.548677,-0.038147,0.379783,-153.310732,-84.748163,160.980172
08906,1139248,9.191304,-0.894361,-0.384686,0.116200,0.002491,0.005231,-0.550697,-0.038188,0.381282,-153.222378,-84.748267,160.956841
08907,1139348,9.235934,-0.937832,-0.343051,0.105912,0.045083,0.001863,-0.550173,-0.039120,0.379732,-153.038252,-84.771008,160.831466
08908,1139448,9.423061,-0.970310,-0.337685,0.104486,0.094344,-0.001633,-0.550639,-0.042005,0.377580,-152.731228,-84.819736,160.581922
08909,1139548,9.675945,-1.040356,-0.373043,0.108867,0.138210,-0.006251,-0.551152,-0.040053,0.378681,-152.312456,-84.891839,160.222779
08910,1139648,9.967734,-1.049080,-0.322029,0.111656,0.169027,-0.013435,-0.548563,-0.041820,0.373083,-151.827508,-84.981215,159.798907
08911,1139748,10.288889,-1.021386,-0.248155,0.109763,0.187978,-0.022059,-0.551081,-0.041853,0.374581,-151.316978,-85.082166,159.348385
08912,1139848,10.521867,-0.892595,-0.149214,0.106896,0.195888,-0.028940,-0.551578,-0.041347,0.374607,-150.802518,-85.188643,158.892386
08913,1139948,10.691472,-0.729792,-0.112163,0.104363,0.200824,-0.036090,-0.552025,-0.043685,0.371480,-150.293734,-85.299254,158.440735
08914,1140048,10.685254,-0.536579,-0.094891,0.104408,0.192093,-0.043604,-0.555011,-0.042143,0.371556,-149.839402,-85.407365,158.043831
08915,1140148,10.576318,-0.399924,-0.016835,0.109040,0.175246,-0.051277,-0.553457,-0.039532,0.368685,-149.472577,-85.509144,157.737442
08916,1140248,10.442449,-0.311068,0.098908,0.120463,0.160663,-0.060043,-0.554954,-0.041501,0.368582,-149.195396,-85.606170,157.527579
08917,1140348,10.356997,-0.301803,0.260314,0.132932,0.162918,-0.072569,-0.555404,-0.040376,0.366134,-148.972952,-85.707933,157.379813
08918,1140448,10.268040,-0.259887,0.399953,0.150894,0.174580,-0.086061,-0.556898,-0.039854,0.366159,-148.774070,-85.819385,157.266023
08919,1140548,10.173219,-0.296069,0.512719,0.151356,0.182428,-0.096979,-0.558861,-0.039252,0.364684,-148.608461,-85.937918,157.185888
08920,1140648,10.090424,-0.263179,0.512140,0.149303,0.172760,-0.100587,-0.559882,-0.042274,0.365531,-148.504071,-86.052804,157.165967
08921,1140748,9.984122,-0.283578,0.506714,0.149443,0.153600,-0.101079,-0.558319,-0.040136,0.362135,-148.484913,-86.158491,157.231572
08922,1140848,9.919069,-0.268956,0.456183,0.154894,0.126476,-0.103110,-0.559801,-0.038594,0.361711,-148.602847,-86.251537,157.437705
08923,1140948,9.763725,-0.309714,0.416758,0.166543,0.104945,-0.105223,-0.559803,-0.039590,0.361660,-148.838159,-86.334639,157.768146
08924,1141048,9.582053,-0.359372,0.359159,0.179653,0.081134,-0.108200,-0.561322,-0.038144,0.363235,-149.213661,-86.406817,158.246577
08925,1141148,9.368546,-0.457211,0.276377,0.189890,0.057268,-0.106889,-0.559832,-0.040160,0.363134,-149.701964,-86.466614,158.843895
08926,1141248,9.202946,-0.546938,0.286623,0.196258,0.015397,-0.099102,-0.563766,-0.037486,0.360760,-150.336404,-86.503043,159.591285
08927,1141348,9.086354,-0.603248,0.345885,0.194630,-0.021672,-0.090436,-0.559828,-0.038167,0.363235,-151.083633,-86.517970,160.450759
08928,1141448,9.053700,-0.703213,0.390267,0.188846,-0.049498,-0.078543,-0.558348,-0.035748,0.364363,-151.865362,-86.514943,161.341521
08929,1141548,9.062241,-0.783069,0.417988,0.186808,-0.072651,-0.063937,-0.560809,-0.040096,0.362134,-152.624322,-86.495559,162.208371
08930,1141648,9.217514,-0.797749,0.338379,0.202606,-0.076086,-0.045537,-0.560328,-0.039156,0.363184,-153.226409,-86.469005,162.927200
08931,1141748,9.270275,-0.808179,0.321782,0.204835,-0.076003,-0.039014,-0.558353,-0.038738,0.364210,-153.762789,-86.440395,163.581557
08932,1141848,9.385744,-0.779607,0.395144,0.194510,-0.086909,-0.029834,-0.560363,-0.038256,0.365234,-154.262892,-86.403507,164.193718
08933,1141948,9.552235,-0.765667,0.483935,0.183870,-0.077685,-0.028761,-0.555923,-0.041413,0.367083,-154.713276,-86.370818,164.750038
08934,1142048,9.628289,-0.744573,0.492309,0.177440,-0.066770,-0.024125,-0.557904,-0.040360,0.366633,-155.079343,-86.342428,165.218255
08935,1142148,9.651894,-0.645714,0.459940,0.173657,-0.065345,-0.020006,-0.556873,-0.041775,0.364558,-155.402366,-86.313622,165.641232
08936,1142248,9.659676,-0.581968,0.298403,0.180789,-0.077952,-0.016582,-0.552830,-0.040199,0.361637,-155.733445,-86.277284,166.076434
08937,1142348,9.619497,-0.622031,0.226483,0.186829,-0.089851,-0.020031,-0.554908,-0.041380,0.366083,-156.122948,-86.235358,166.573718
08938,1142448,9.574951,-0.597277,0.202860,0.204293,-0.109969,-0.024304,-0.556884,-0.042297,0.365032,-156.595013,-86.183619,167.163842
08939,1142548,9.501826,-0.586586,0.289068,0.227338,-0.138959,-0.029906,-0.554448,-0.041983,0.368057,-157.178376,-86.117516,167.878832
08940,1142648,9.418024,-0.536036,0.442597,0.242048,-0.159835,-0.036107,-0.554441,-0.043453,0.367481,-157.844297,-86.041212,168.685125
08941,1142748,9.416464,-0.425964,0.622706,0.245782,-0.177182,-0.042358,-0.553991,-0.044080,0.369955,-158.578619,-85.956356,169.562250
08942,1142848,9.479794,-0.323381,0.767649,0.237923,-0.179432,-0.052115,-0.551013,-0.040190,0.371159,-159.362836,-85.871519,170.485009
08943,1142948,9.570950,-0.183170,0.785603,0.228856,-0.167582,-0.056725,-0.553517,-0.042167,0.371556,-160.120098,-85.793110,171.375653
08944,1143048,9.651046,-0.091229,0.773577,0.198725,-0.148102,-0.066165,-0.553556,-0.043260,0.373505,-160.883723,-85.726197,172.255467
08945,1143148,9.621666,0.013104,0.706140,0.170962,-0.128216,-0.077140,-0.552086,-0.046321,0.374352,-161.669212,-85.671242,173.141332
08946,1143248,9.596210,0.118792,0.661638,0.145720,-0.111374,-0.095373,-0.549121,-0.044448,0.375954,-162.540314,-85.627746,174.098612
08947,1143348,9.491528,0.128035,0.617568,0.125475,-0.099760,-0.112573,-0.548588,-0.045356,0.373904,-163.502706,-85.592357,175.135866
08948,1143448,9.386227,0.102722,0.480433,0.101023,-0.116264,-0.129268,-0.545122,-0.046954,0.374829,-164.613745,-85.549088,176.308213
08949,1143548,9.468671,0.048798,0.502056,0.071879,-0.147351,-0.143458,-0.543161,-0.049051,0.376227,-165.874478,-85.488819,177.614051
08950,1143648,9.521628,-0.037286,0.627547,0.058382,-0.161541,-0.151800,-0.542636,-0.049485,0.374702,-167.189220,-85.419498,178.966444
08951,1143748,9.562358,-0.097206,0.731719,0.040353,-0.163373,-0.157655,-0.541684,-0.053583,0.376499,-168.516735,-85.347426,-179.678554
08952,1143848,9.653356,-0.094261,0.684966,0.021297,-0.158020,-0.166518,-0.541687,-0.055077,0.376423,-169.867417,-85.276811,-178.311100
08953,1143948,9.723507,-0.076963,0.674662,0.012144,-0.141782,-0.172235,-0.536210,-0.056659,0.376348,-171.204189,-85.213334,-176.962710
08954,1144048,9.776600,-0.022619,0.691111,0.000250,-0.132043,-0.176211,-0.535698,-0.059608,0.375196,-172.529976,-85.153145,-175.632037
08955,1144148,9.814387,-0.019520,0.669359,-0.009607,-0.125834,-0.181770,-0.537223,-0.061152,0.376619,-173.860565,-85.094315,-174.302074
08956,1144248,9.982273,0.074388,0.772559,-0.025021,-0.120325,-0.191389,-0.531301,-0.065851,0.378891,-175.227933,-85.036531,-172.943923
08957,1144348,10.121957,0.124234,0.935910,-0.048433,-0.113199,-0.199172,-0.528274,-0.065304,0.376918,-176.624473,-84.980363,-171.569817
08958,1144448,10.304815,0.183566,1.060800,-0.076149,-0.096666,-0.203638,-0.530282,-0.068784,0.377240,-178.030500,-84.930899,-170.201996
08959,1144548,10.419939,0.295889,1.194347,-0.101082,-0.073024,-0.209191,-0.526302,-0.071836,0.377089,-179.457226,-84.892124,-168.827627
08960,1144648,10.497715,0.374544,1.232237,-0.123259,-0.048484,-0.220368,-0.525778,-0.072768,0.375538,179.051678,-84.864329,-167.401303
08961,1144748,10.589601,0.374303,1.214070,-0.140396,-0.028365,-0.229836,-0.524784,-0.079237,0.374709,177.501922,-84.844557,-165.925874
08962,1144848,10.620450,0.311218,1.209096,-0.157663,-0.007358,-0.238134,-0.520805,-0.077830,0.375286,175.893084,-84.832922,-164.400998
08963,1144948,10.563298,0.152911,1.152197,-0.169672,0.011270,-0.244677,-0.522258,-0.080177,0.372660,174.232682,-84.827722,-162.831203
08964,1145048,10.432655,0.010472,1.087221,-0.167506,0.020242,-0.253390,-0.518269,-0.083205,0.372008,172.516107,-84.822918,-161.203701
08965,1145148,10.395310,-0.126994,1.056183,-0.159163,0.038554,-0.253878,-0.516793,-0.088734,0.372229,170.787375,-84.824076,-159.559129
08966,1145248,10.536874,-0.216689,0.921048,-0.147913,0.067555,-0.255407,-0.514810,-0.088789,0.372730,169.021539,-84.836945,-157.870783
08967,1145348,10.626487,-0.282107,0.712361,-0.144592,0.086450,-0.250876,-0.515314,-0.092269,0.372552,167.252282,-84.856272,-156.177066
08968,1145448,10.599557,-0.393094,0.463814,-0.142986,0.078533,-0.237315,-0.511774,-0.093674,0.369478,165.568994,-84.868447,-154.568708
08969,1145548,10.635913,-0.507006,0.213942,-0.113280,0.058997,-0.218977,-0.513753,-0.096086,0.368351,164.043342,-84.868556,-153.101465
08970,1145648,10.732326,-0.619334,-0.022781,-0.069223,0.033358,-0.199453,-0.511771,-0.102096,0.368047,162.711426,-84.854532,-151.803292
08971,1145748,10.904365,-0.691377,-0.288549,-0.029811,0.009075,-0.178754,-0.513254,-0.101052,0.367597,161.583234,-84.828422,-150.686866
08972,1145848,11.162237,-0.735895,-0.548226,-0.006254,-0.005568,-0.156300,-0.511263,-0.107038,0.366793,160.644305,-84.796743,-149.746785
08973,1145948,11.383032,-0.694727,-0.822030,0.009677,-0.017225,-0.134144,-0.510269,-0.108549,0.366717,159.881392,-84.761812,-148.974152
08974,1146048,11.598798,-0.650556,-1.039700,0.026854,-0.023276,-0.110620,-0.509228,-0.109441,0.364167,159.288623,-84.727508,-148.362375
08975,1146148,11.747679,-0.602955,-1.263187,0.056197,-0.031779,-0.092583,-0.513319,-0.111635,0.369563,158.843309,-84.691839,-147.881691
08976,1146248,11.839712,-0.557857,-1.379554,0.077794,-0.064072,-0.081049,-0.512803,-0.112093,0.368537,158.554846,-84.641048,-147.546010
08977,1146348,12.028301,-0.550095,-1.184031,0.079867,-0.091414,-0.072293,-0.511794,-0.110092,0.368140,158.383824,-84.577400,-147.326992
08978,1146448,12.106588,-0.528243,-0.723455,0.065101,-0.082862,-0.059365,-0.513805,-0.115067,0.368385,158.261746,-84.520997,-147.165534
08979,1146548,12.020961,-0.330414,-0.443110,0.052022,-0.039577,-0.044029,-0.516241,-0.115879,0.365335,158.123886,-84.490858,-146.995665
08980,1146648,11.747887,0.004593,-0.302590,0.021162,0.013384,-0.033786,-0.517753,-0.114907,0.366385,157.908446,-84.491015,-146.765569
08981,1146748,11.376150,0.275275,-0.368088,-0.030357,0.058171,-0.020967,-0.519737,-0.115848,0.365833,157.632688,-84.517617,-146.504517
08982,1146848,11.024061,0.444639,-0.482082,-0.079482,0.116072,-0.015530,-0.522642,-0.115584,0.361334,157.221828,-84.575902,-146.136040
08983,1146948,10.659076,0.567896,-0.763489,-0.130091,0.164166,-0.005725,-0.526670,-0.118606,0.363180,156.712531,-84.661460,-145.697878
08984,1147048,10.127302,0.716083,-1.168055,-0.173573,0.173718,0.005195,-0.529594,-0.118889,0.359654,156.201084,-84.754157,-145.282682
08985,1147148,9.665853,0.786210,-1.618377,-0.208233,0.158156,0.005364,-0.533068,-0.121774,0.358502,155.694621,-84.838392,-144.892549
08986,1147248,9.215755,0.825813,-2.005322,-0.233781,0.133649,-0.000294,-0.536999,-0.122563,0.355451,155.191654,-84.908170,-144.520744
08987,1147348,8.824406,0.863361,-2.284199,-0.259099,0.095893,-0.006169,-0.537987,-0.123520,0.354900,154.732190,-84.956615,-144.207293
08988,1147448,8.544287,0.968125,-2.371294,-0.284867,0.056680,-0.014113,-0.539447,-0.124894,0.352824,154.314626,-84.982577,-143.950840
08989,1147548,8.381255,1.075644,-2.361753,-0.312412,0.029651,-0.022856,-0.543956,-0.128857,0.353619,153.904010,-84.992225,-143.717316
08990,1147648,8.314588,1.173714,-2.257703,-0.347522,0.015344,-0.024209,-0.541864,-0.130119,0.348045,153.505789,-84.994007,-143.516540
08991,1147748,8.354957,1.174176,-2.205345,-0.373607,0.023763,-0.024281,-0.543340,-0.135503,0.346266,153.067167,-84.999923,-143.290323
08992,1147848,8.527472,1.053656,-2.229698,-0.390803,0.041850,-0.015840,-0.544764,-0.137778,0.342140,152.612814,-85.017085,-143.058306
08993,1147948,8.690397,0.985721,-2.266952,-0.404257,0.058896,-0.007923,-0.546278,-0.138301,0.343114,152.142353,-85.044814,-142.817957
08994,1148048,8.923753,0.901944,-2.223394,-0.417078,0.079490,-0.002796,-0.545704,-0.142576,0.338387,151.625867,-85.084128,-142.538876
08995,1148148,9.182905,0.871660,-2.181369,-0.421371,0.106065,-0.005139,-0.545664,-0.145943,0.335710,151.000675,-85.135890,-142.153254
08996,1148248,9.441458,0.975909,-2.178287,-0.420333,0.126167,-0.012674,-0.547636,-0.150323,0.333982,150.253165,-85.195149,-141.644394
08997,1148348,9.609247,1.083581,-2.112899,-0.414857,0.130729,-0.030073,-0.548091,-0.152188,0.331381,149.373880,-85.251017,-141.000283
08998,1148448,9.795347,1.152774,-2.010021,-0.407074,0.119557,-0.052588,-0.549502,-0.157404,0.326103,148.387938,-85.293834,-140.244815
08999,1148548,9.968650,1.135317,-1.765959,-0.383007,0.103320,-0.077560,-0.549423,-0.159678,0.321478,147.313755,-85.320016,-139.387095
09000,1148648,10.056783,1.054676,-1.495382,-0.357389,0.092684,-0.096928,-0.547399,-0.162603,0.319327,146.171953,-85.333639,-138.446899
09001,1148748,10.132382,0.890490,-1.346222,-0.351729,0.093444,-0.109305,-0.553848,-0.163424,0.317774,144.953237,-85.342018,-137.426348
09002,1148848,10.119284,0.734601,-1.063671,-0.331511,0.092082,-0.109879,-0.550785,-0.168736,0.312998,143.744958,-85.347806,-136.404688
09003,1148948,9.996336,0.678732,-0.867498,-0.326030,0.094740,-0.097790,-0.553279,-0.170689,0.312895,142.593897,-85.357253,-135.437320
09004,1149048,9.812042,0.659084,-0.686673,-0.323881,0.096995,-0.084965,-0.555207,-0.170489,0.309396,141.501266,-85.370701,-134.527376
09005,1149148,9.619277,0.718449,-0.501027,-0.336013,0.109294,-0.070800,-0.553193,-0.174434,0.307694,140.418223,-85.393334,-133.634070
09006,1149248,9.406852,0.793103,-0.381401,-0.334780,0.121705,-0.061223,-0.552656,-0.173349,0.305746,139.320684,-85.423568,-132.725575
09007,1149348,9.186816,0.839550,-0.371699,-0.323581,0.125085,-0.056169,-0.552617,-0.177713,0.303018,138.227536,-85.455771,-131.815121
09008,1149448,9.053606,0.800793,-0.485452,-0.319962,0.110756,-0.044019,-0.556009,-0.176420,0.298070,137.257813,-85.485268,-131.026470
09009,1149548,8.907810,0.725412,-0.507061,-0.313878,0.074638,-0.030193,-0.553542,-0.178999,0.298943,136.534783,-85.504143,-130.481833
09010,1149648,8.849030,0.588433,-0.453068,-0.307790,0.046090,-0.013491,-0.555489,-0.179843,0.296393,136.042864,-85.517352,-130.165543
09011,1149748,8.814953,0.488148,-0.351075,-0.298047,0.034535,0.003579,-0.556931,-0.181170,0.293317,135.702936,-85.532440,-129.996118
09012,1149848,8.758074,0.405100,-0.329756,-0.278530,0.022929,0.022295,-0.555917,-0.181636,0.292293,135.530674,-85.550219,-129.983649
09013,1149948,8.719518,0.395277,-0.289551,-0.260620,0.014740,0.041286,-0.558387,-0.185510,0.290589,135.510626,-85.572275,-130.113554
09014,1150048,8.709243,0.470970,-0.217134,-0.245222,0.003243,0.060235,-0.558337,-0.183895,0.288166,135.660571,-85.597215,-130.405104
09015,1150148,8.714760,0.597669,-0.134210,-0.228328,-0.001709,0.072297,-0.559815,-0.185317,0.287090,135.913383,-85.624863,-130.790116
09016,1150248,8.733620,0.740869,-0.126063,-0.204761,-0.001989,0.081008,-0.558307,-0.187784,0.285964,136.232651,-85.655710,-131.228246
09017,1150348,8.780039,0.814949,-0.115217,-0.176849,-0.012012,0.083551,-0.562811,-0.189256,0.286886,136.639585,-85.683188,-131.738268
09018,1150448,8.810833,0.853098,-0.157420,-0.151698,-0.023892,0.088619,-0.561761,-0.190124,0.283837,137.156805,-85.707365,-132.344457
09019,1150548,8.803352,0.914420,-0.155708,-0.131129,-0.038913,0.091646,-0.565251,-0.192061,0.283734,137.786694,-85.725913,-133.051837
09020,1150648,8.817950,0.943118,-0.079153,-0.113674,-0.049876,0.091739,-0.562740,-0.191056,0.282786,138.488678,-85.739200,-133.821515
09021,1150748,8.879966,0.983869,-0.012806,-0.088198,-0.044642,0.088880,-0.564236,-0.191530,0.282760,139.166564,-85.752973,-134.552428
09022,1150848,8.949188,1.009951,0.056745,-0.053210,-0.032910,0.089488,-0.565705,-0.192929,0.281184,139.813889,-85.771454,-135.232629
09023,1150948,9.066815,1.041333,0.113570,-0.022403,-0.017984,0.087334,-0.567692,-0.189908,0.281336,140.397530,-85.795162,-135.831311
09024,1151048,9.122508,0.997199,0.144186,-0.000576,-0.006014,0.087131,-0.566183,-0.192375,0.280209,140.939853,-85.823668,-136.376053
09025,1151148,9.177574,0.989818,0.181885,0.017043,-0.001771,0.087762,-0.567652,-0.193774,0.278633,141.482585,-85.853917,-136.911115
09026,1151248,9.272818,0.954110,0.216422,0.043493,0.008423,0.087524,-0.569190,-0.191878,0.281234,141.996763,-85.888309,-137.402377
09027,1151348,9.388211,0.936889,0.255743,0.069059,0.009271,0.090523,-0.570162,-0.188824,0.280386,142.548892,-85.923807,-137.917024
09028,1151448,9.554558,0.937839,0.267234,0.101121,0.023981,0.096488,-0.569677,-0.190849,0.280784,143.095607,-85.967735,-138.407846
09029,1151548,9.609933,1.027759,0.327776,0.118958,0.039760,0.099516,-0.570653,-0.189789,0.279835,143.606802,-86.019630,-138.852840
09030,1151648,9.680853,0.958613,0.427880,0.104920,0.047162,0.107254,-0.572147,-0.189765,0.279835,144.138379,-86.077284,-139.326344
09031,1151748,9.714143,0.908376,0.591758,0.101414,0.076592,0.115850,-0.573110,-0.186687,0.278487,144.597376,-86.151233,-139.729117
09032,1151848,9.713311,0.900699,0.646425,0.088342,0.116853,0.126701,-0.574161,-0.186318,0.281512,144.941601,-86.247425,-140.024370
09033,1151948,9.621397,0.888964,0.593800,0.077791,0.135972,0.142623,-0.575113,-0.187178,0.278961,145.316025,-86.357701,-140.355951
09034,1152048,9.579262,0.879461,0.586948,0.086436,0.144060,0.152099,-0.576588,-0.181650,0.278740,145.747667,-86.474724,-140.739899
09035,1152148,9.547487,0.885660,0.585535,0.100954,0.162802,0.164336,-0.577045,-0.184511,0.276089,146.212951,-86.604383,-141.149210
09036,1152248,9.460826,0.866480,0.488720,0.113371,0.163245,0.178397,-0.578563,-0.182567,0.277689,146.835614,-86.738462,-141.709029
09037,1152348,9.432253,0.799176,0.501014,0.117847,0.152021,0.186252,-0.579529,-0.180984,0.276266,147.643825,-86.869158,-142.452082
09038,1152448,9.346542,0.724352,0.552717,0.122689,0.137841,0.192516,-0.583011,-0.177939,0.276417,148.661144,-86.994176,-143.401709
09039,1152548,9.230809,0.647606,0.555001,0.120711,0.117379,0.195483,-0.584477,-0.177843,0.274917,149.908142,-87.108963,-144.582379
09040,1152648,9.181947,0.605502,0.616436,0.109364,0.100730,0.200716,-0.585940,-0.175754,0.273519,151.396419,-87.215431,-146.011046
09041,1152748,9.144499,0.632469,0.689515,0.103826,0.097247,0.204169,-0.588466,-0.174815,0.275568,153.053016,-87.319085,-147.611303
09042,1152848,9.250693,0.673984,0.747769,0.089685,0.100902,0.213448,-0.586936,-0.175240,0.273544,154.917594,-87.424571,-149.427769
09043,1152948,9.436553,0.748723,0.849018,0.053801,0.114788,0.232224,-0.589913,-0.174172,0.273094,157.073358,-87.538733,-151.556169
09044,1153048,9.645806,0.768583,0.976614,0.009756,0.132854,0.253245,-0.591378,-0.173080,0.271645,159.594669,-87.663072,-154.075548
09045,1153148,9.862793,0.747053,1.138896,-0.022714,0.157691,0.271322,-0.592385,-0.168628,0.272873,162.518373,-87.799115,-157.016064
09046,1153248,10.134626,0.772060,1.301887,-0.032746,0.193722,0.281390,-0.595811,-0.170895,0.269246,165.827023,-87.950103,-160.347305
09047,1153348,10.449305,0.716713,1.346132,-0.026355,0.228887,0.284284,-0.595777,-0.167336,0.267925,169.591361,-88.113267,-164.130554
09048,1153448,10.842353,0.595665,1.323022,0.005337,0.268367,0.288471,-0.596293,-0.167376,0.268924,174.066462,-88.289475,-168.606413
09049,1153548,11.300804,0.360246,1.332673,0.063281,0.293131,0.290373,-0.599732,-0.166203,0.266475,179.597862,-88.467083,-174.105381
09050,1153648,11.869074,0.096473,1.214979,0.104300,0.332312,0.290594,-0.601673,-0.163561,0.264102,-173.372034,-88.649170,178.920456
09051,1153748,12.402916,-0.166489,1.135305,0.140362,0.352335,0.290432,-0.601170,-0.160579,0.264255,-164.179098,-88.816172,169.804134
09052,1153848,12.819648,-0.154068,1.019908,0.155215,0.363711,0.289170,-0.601610,-0.159430,0.261307,-152.260678,-88.949980,157.970846
09053,1153948,13.149597,0.102475,0.843595,0.157686,0.373832,0.287445,-0.604058,-0.156305,0.259459,-137.522107,-89.032409,143.318795
09054,1154048,13.441047,0.547243,0.467988,0.132935,0.388275,0.292244,-0.608018,-0.152706,0.258636,-120.827856,-89.044662,126.696756
09055,1154148,13.672162,0.973992,-0.046585,0.084439,0.387094,0.292703,-0.611468,-0.147098,0.257415,-105.104462,-88.977608,111.017677
09056,1154248,13.460462,1.282724,-0.745650,0.032095,0.325393,0.289119,-0.612921,-0.144985,0.255517,-93.927111,-88.845840,99.854803
09057,1154348,12.855549,1.328388,-1.333481,-0.030660,0.202697,0.278415,-0.615385,-0.140413,0.254745,-88.369243,-88.689853,94.275994
09058,1154448,12.155417,1.016796,-1.504542,-0.080942,0.075137,0.254950,-0.612865,-0.139384,0.253297,-86.860572,-88.543440,92.718258
09059,1154548,11.545340,0.613484,-1.476920,-0.106706,-0.034348,0.232077,-0.614803,-0.134748,0.251026,-87.869349,-88.412862,93.663886
09060,1154648,10.867956,0.165259,-1.459372,-0.116374,-0.138406,0.209616,-0.614817,-0.132305,0.252153,-90.728574,-88.295083,96.455176
09061,1154748,10.258060,-0.329755,-1.467611,-0.104703,-0.233430,0.203919,-0.613825,-0.129355,0.252805,-94.922112,-88.173122,100.588258
09062,1154848,9.673115,-0.769700,-1.455928,-0.079985,-0.322062,0.206279,-0.612354,-0.126960,0.254432,-100.021800,-88.033228,105.642485
09063,1154948,9.079537,-1.104703,-1.281699,-0.015594,-0.386446,0.198336,-0.614374,-0.126503,0.255957,-105.376492,-87.874951,110.989307
09064,1155048,8.539319,-1.510567,-1.143135,0.078041,-0.410136,0.179466,-0.611409,-0.124629,0.257559,-110.315045,-87.706310,115.974042
09065,1155148,8.028586,-1.925234,-1.108087,0.185041,-0.397557,0.154840,-0.610933,-0.121222,0.259236,-114.471993,-87.538768,120.238594
09066,1155248,7.591040,-2.169260,-1.033629,0.289296,-0.346887,0.127198,-0.611012,-0.118948,0.263861,-117.619954,-87.387293,123.553647
09067,1155348,7.276974,-2.144464,-1.043390,0.387247,-0.246177,0.103912,-0.610512,-0.117959,0.263912,-119.450405,-87.268886,125.606469
09068,1155448,7.132115,-1.827659,-1.235561,0.468245,-0.123222,0.066021,-0.610043,-0.118537,0.265386,-120.069490,-87.202264,126.493272
09069,1155548,7.221877,-1.575863,-1.568786,0.518097,-0.022608,0.032865,-0.608047,-0.116576,0.265489,-119.817019,-87.180716,126.536207
09070,1155648,7.594378,-1.244020,-1.746491,0.543717,0.027549,0.003132,-0.612484,-0.116385,0.262988,-119.215558,-87.188147,126.244496
09071,1155748,8.214213,-1.024662,-1.803662,0.546709,0.045564,-0.022477,-0.611542,-0.116047,0.266013,-118.569645,-87.213237,125.910043
09072,1155848,8.928704,-0.935093,-1.773212,0.524671,0.037483,-0.032051,-0.610474,-0.111908,0.262718,-118.066327,-87.240778,125.705747
09073,1155948,9.609706,-0.876485,-1.616577,0.469375,0.018852,-0.021277,-0.613505,-0.114946,0.264564,-117.725480,-87.257782,125.632418
09074,1156048,10.244355,-0.778357,-1.518541,0.397616,-0.015220,0.000003,-0.615000,-0.115421,0.264538,-117.667143,-87.254892,125.800774
09075,1156148,10.852385,-0.737050,-1.481995,0.335152,-0.042412,0.021537,-0.612009,-0.113974,0.264615,-117.811374,-87.233813,126.136109
09076,1156248,11.285993,-0.848789,-1.379955,0.289677,-0.047378,0.039096,-0.614951,-0.113806,0.262115,-117.932766,-87.202461,126.422516
09077,1156348,11.283489,-0.940762,-1.387748,0.258198,-0.033765,0.050106,-0.614462,-0.113339,0.262640,-117.868600,-87.169163,126.505115
09078,1156448,10.836004,-0.923993,-1.281260,0.219340,-0.038962,0.057391,-0.617479,-0.113863,0.264113,-117.840185,-87.130773,126.601247
09079,1156548,10.368744,-0.842967,-1.068971,0.193095,-0.071017,0.062268,-0.617947,-0.107330,0.263444,-118.118812,-87.081276,126.989785
09080,1156648,9.908658,-0.685689,-0.689609,0.192263,-0.090516,0.048568,-0.615504,-0.112946,0.265164,-118.648620,-87.033228,127.629388
09081,1156748,9.542126,-0.586165,-0.499882,0.204752,-0.108018,0.030219,-0.616934,-0.108294,0.262394,-119.416718,-86.989130,128.514810
09082,1156848,9.011381,-0.539693,-0.455871,0.225041,-0.163801,0.009153,-0.615953,-0.106364,0.263495,-120.779386,-86.938587,130.007324
09083,1156948,8.712462,-0.538295,-0.338352,0.267142,-0.227073,-0.004183,-0.617489,-0.108928,0.265367,-122.707379,-86.873209,132.090238
09084,1157048,8.452186,-0.532371,-0.359520,0.299494,-0.266862,-0.014451,-0.615484,-0.107441,0.264944,-124.927624,-86.795992,134.484569
09085,1157148,8.288291,-0.550268,-0.423338,0.313866,-0.300614,-0.020110,-0.614542,-0.106107,0.268019,-127.329711,-86.704710,137.069492
