PacketCounter,SampleTimeFine,Acc_X,Acc_Y,Acc_Z,Gyr_X,Gyr_Y,Gyr_Z,Mag_X,Mag_Y,Mag_Z,Roll,Pitch,Yaw
04801,827077,9.860151,0.974267,0.500585,-0.012855,-0.002683,-0.016348,-0.261105,-0.040984,1.044844,58.137105,-83.493233,-57.970862
04802,827177,9.777026,0.998314,0.542313,-0.014810,-0.006874,-0.019637,-0.264582,-0.040406,1.044369,58.218649,-83.485198,-58.060622
04803,827277,9.738021,1.049048,0.540030,-0.014912,-0.017644,-0.020674,-0.272082,-0.045817,1.045086,58.348604,-83.479882,-58.199153
04804,827377,9.723092,0.989199,0.613252,-0.021444,-0.021967,-0.020608,-0.272553,-0.046235,1.043561,58.492887,-83.475857,-58.355873
04805,827477,9.713073,0.871532,0.565780,-0.025281,-0.014890,-0.017652,-0.276539,-0.046669,1.043535,58.596825,-83.471123,-58.474208
04806,827577,9.752479,0.827713,0.581793,-0.028731,-0.013601,-0.011886,-0.276045,-0.049169,1.043408,58.678114,-83.468805,-58.571755
04807,827677,9.870457,0.824475,0.586851,-0.029256,-0.002899,-0.008013,-0.279543,-0.050134,1.043856,58.703209,-83.465187,-58.613064
04808,827777,9.880118,0.843685,0.602483,-0.026784,0.009165,-0.008019,-0.277623,-0.049362,1.047906,58.678166,-83.457977,-58.602500
04809,827877,9.798977,0.848683,0.563414,-0.023161,0.009081,-0.004534,-0.282665,-0.051918,1.050776,58.646541,-83.452497,-58.583236
04810,827977,9.690744,0.878992,0.543303,-0.017875,-0.004433,-0.005349,-0.281154,-0.047932,1.050480,58.677677,-83.450647,-58.624103
04811,828077,9.691710,0.939211,0.604726,-0.008743,-0.015837,-0.007614,-0.283659,-0.050906,1.050826,58.768531,-83.451076,-58.719821
04812,828177,9.682692,0.987918,0.569174,-0.000211,-0.018042,-0.010245,-0.282225,-0.048109,1.054478,58.880497,-83.450848,-58.831865
04813,828277,9.702902,1.009005,0.498138,0.006252,-0.019908,-0.011220,-0.278230,-0.048148,1.053979,59.006657,-83.450667,-58.954457
04814,828377,9.744050,1.005999,0.462782,0.011021,-0.026757,-0.008363,-0.276667,-0.050968,1.049829,59.157587,-83.453873,-59.099220
04815,828477,9.764656,0.984973,0.489452,0.016170,-0.036532,-0.005540,-0.274547,-0.052656,1.042731,59.346438,-83.461284,-59.279174
04816,828577,9.766233,0.939892,0.541737,0.019991,-0.041853,-0.003865,-0.271469,-0.054456,1.037632,59.556604,-83.470999,-59.478379
04817,828677,9.743485,0.849454,0.551356,0.022182,-0.039273,-0.002267,-0.270458,-0.056416,1.036531,59.753415,-83.480678,-59.662890
04818,828777,9.723104,0.773937,0.574623,0.020448,-0.030886,-0.001135,-0.268311,-0.058031,1.027934,59.910499,-83.488440,-59.808438
04819,828877,9.685134,0.748779,0.541982,0.021834,-0.022877,0.000708,-0.265853,-0.061132,1.029281,60.029228,-83.494782,-59.914610
04820,828977,9.688156,0.733369,0.481157,0.030083,-0.025930,0.002244,-0.265193,-0.063696,1.020133,60.162368,-83.502735,-60.030553
04821,829077,9.735692,0.802056,0.462962,0.044902,-0.034727,0.006829,-0.265235,-0.066782,1.021980,60.331365,-83.515439,-60.174053
04822,829177,9.747027,0.916754,0.506854,0.053000,-0.043692,0.011838,-0.262739,-0.063832,1.022133,60.532590,-83.533121,-60.345317
04823,829277,9.741912,1.011113,0.545191,0.053619,-0.049751,0.013820,-0.260608,-0.069457,1.013831,60.757068,-83.553422,-60.539616
04824,829377,9.777158,1.110054,0.538669,0.045820,-0.051782,0.010195,-0.258133,-0.067552,1.014934,60.996382,-83.572385,-60.753315
04825,829477,9.806021,1.113437,0.508251,0.035973,-0.053001,0.006035,-0.254683,-0.072661,1.016180,61.247057,-83.589493,-60.984099
04826,829577,9.821577,1.068366,0.409563,0.033594,-0.047403,0.000917,-0.252653,-0.072597,1.014181,61.485015,-83.602380,-61.203430
04827,829677,9.818880,0.999126,0.362003,0.033710,-0.040401,-0.001972,-0.251127,-0.075514,1.012030,61.699429,-83.611806,-61.398985
04828,829777,9.813723,0.952503,0.392919,0.026720,-0.039699,-0.004452,-0.248124,-0.078004,1.010905,61.913263,-83.619709,-61.597977
04829,829877,9.744730,0.945799,0.491541,0.018523,-0.040656,-0.006856,-0.247177,-0.079635,1.013327,62.133010,-83.626569,-61.807643
04830,829977,9.706942,0.933352,0.615707,0.010004,-0.044791,-0.012191,-0.245653,-0.078590,1.011879,62.379831,-83.631731,-62.049475
04831,830077,9.665096,0.902355,0.633646,0.005389,-0.045228,-0.017286,-0.247147,-0.078566,1.011879,62.638409,-83.634300,-62.305811
04832,830177,9.687434,0.877405,0.595453,0.004013,-0.048196,-0.018221,-0.244690,-0.076709,1.013981,62.912144,-83.637039,-62.578209
04833,830277,9.788284,0.887361,0.528745,0.009979,-0.043109,-0.015602,-0.247192,-0.077690,1.014429,63.160108,-83.639657,-62.821252
04834,830377,9.784566,0.971609,0.439226,0.026293,-0.031398,-0.010867,-0.244792,-0.076476,1.019504,63.352884,-83.641575,-62.999356
04835,830477,9.702666,0.981540,0.355743,0.032028,-0.027863,-0.007441,-0.247865,-0.076645,1.024001,63.524936,-83.644281,-63.153291
04836,830577,9.710727,0.904376,0.354856,0.021507,-0.042328,-0.002543,-0.243863,-0.072698,1.023706,63.746711,-83.653124,-63.363320
04837,830677,9.740019,0.882532,0.394689,0.016391,-0.056909,-0.002680,-0.245484,-0.071019,1.030804,64.034082,-83.665471,-63.642302
04838,830777,9.730410,0.946748,0.448784,0.014772,-0.063066,-0.001156,-0.242451,-0.066984,1.029009,64.346911,-83.679979,-63.947827
04839,830877,9.769006,0.935326,0.545144,0.011260,-0.070802,-0.002870,-0.241018,-0.064685,1.032635,64.699189,-83.695310,-64.295069
04840,830977,9.806458,0.954861,0.565533,0.017190,-0.072879,-0.002655,-0.237472,-0.063102,1.029714,65.065863,-83.711019,-64.653377
04841,831077,9.799690,1.028422,0.504035,0.017793,-0.064310,-0.004739,-0.232550,-0.059862,1.033392,65.398596,-83.723345,-64.977181
04842,831177,9.755874,1.056461,0.391485,0.018360,-0.058584,-0.005954,-0.231610,-0.060022,1.036391,65.708319,-83.733479,-65.277490
04843,831277,9.730347,1.054782,0.373817,0.015956,-0.054001,-0.005384,-0.230051,-0.054919,1.033647,65.994564,-83.742666,-65.555545
04844,831377,9.747946,1.031635,0.397541,0.015617,-0.050291,-0.005671,-0.226615,-0.052627,1.036773,66.264273,-83.750695,-65.817149
04845,831477,9.746033,1.034061,0.396751,0.016189,-0.048342,-0.003586,-0.224040,-0.051952,1.032301,66.521276,-83.759238,-66.065630
04846,831577,9.740009,1.024748,0.391066,0.013420,-0.053779,-0.001565,-0.221091,-0.053591,1.034225,66.799429,-83.769952,-66.336971
04847,831677,9.749377,1.005316,0.418794,0.004498,-0.054439,0.002269,-0.221517,-0.054386,1.030176,67.068746,-83.782694,-66.604557
04848,831777,9.761705,0.960486,0.421515,-0.002786,-0.051867,0.003575,-0.214031,-0.051990,1.029805,67.319820,-83.795423,-66.857988
04849,831877,9.773309,0.947855,0.393518,-0.006928,-0.050760,0.007935,-0.214896,-0.056595,1.022054,67.555356,-83.810098,-67.098176
04850,831977,9.781752,0.941583,0.384598,-0.006743,-0.045270,0.008828,-0.213879,-0.055068,1.021131,67.763427,-83.823952,-67.310629
04851,832077,9.781985,0.984232,0.390947,-0.004783,-0.040818,0.011292,-0.213840,-0.058933,1.018429,67.946754,-83.838073,-67.497061
04852,832177,9.815491,1.007048,0.405318,-0.002517,-0.035703,0.010509,-0.212791,-0.060797,1.015329,68.108536,-83.850620,-67.660509
04853,832277,9.789723,1.036801,0.422221,0.002976,-0.028063,0.010322,-0.217714,-0.059079,1.012404,68.236694,-83.861396,-67.786966
04854,832377,9.798206,1.029846,0.456223,0.002965,-0.020547,0.010788,-0.216171,-0.057986,1.009957,68.327094,-83.870799,-67.875451
04855,832477,9.830195,1.019153,0.425585,-0.002362,-0.014890,0.009047,-0.213214,-0.060098,1.011355,68.390033,-83.878066,-67.939384
04856,832577,9.801192,1.025248,0.433221,-0.006390,-0.007798,0.008585,-0.214085,-0.062735,1.004205,68.416447,-83.883585,-67.968902
04857,832677,9.786005,1.038426,0.412795,-0.008558,-0.006213,0.009142,-0.216076,-0.062205,1.004230,68.432684,-83.889065,-67.989429
04858,832777,9.799270,1.005913,0.383988,-0.008749,-0.000713,0.005231,-0.216920,-0.064769,0.995581,68.429153,-83.891303,-67.990182
04859,832877,9.773373,0.993749,0.460898,-0.006552,0.003834,0.008908,-0.216013,-0.067991,0.999927,68.396978,-83.894540,-67.960865
04860,832977,9.791308,0.972202,0.518582,-0.002578,0.012843,0.009190,-0.215001,-0.069454,0.998851,68.321609,-83.896021,-67.885829
04861,833077,9.801283,0.966254,0.522733,-0.005484,0.025623,0.010707,-0.214433,-0.072258,0.994701,68.177917,-83.895580,-67.743767
04862,833177,9.784332,0.987442,0.497336,-0.007692,0.035910,0.009077,-0.212035,-0.072040,0.999725,67.985150,-83.892028,-67.553629
04863,833277,9.792870,0.951121,0.444773,-0.002134,0.036380,0.009435,-0.211533,-0.075014,0.999073,67.792736,-83.888498,-67.360648
04864,833377,9.822689,0.933478,0.422402,0.009278,0.040959,0.006756,-0.211564,-0.077079,1.000471,67.589897,-83.882480,-67.150614
04865,833477,9.840787,0.936167,0.434468,0.019225,0.053032,0.002942,-0.212621,-0.074740,1.004096,67.341509,-83.871707,-66.889042
04866,833577,9.829529,0.973384,0.431505,0.017294,0.061317,-0.000783,-0.211644,-0.075303,1.005070,67.060007,-83.856998,-66.595274
04867,833677,9.790305,0.987978,0.441335,0.009419,0.064352,-0.002046,-0.213168,-0.081306,1.005765,66.763210,-83.840782,-66.290654
04868,833777,9.776536,1.049993,0.461597,-0.002601,0.062525,-0.003848,-0.212274,-0.076130,1.012042,66.473798,-83.823868,-66.000373
04869,833877,9.737918,1.107564,0.505361,-0.006343,0.063970,-0.003810,-0.216376,-0.079345,1.017886,66.176771,-83.806479,-65.704569
04870,833977,9.758091,1.068107,0.542016,-0.008795,0.070655,-0.003379,-0.214344,-0.078284,1.015939,65.846956,-83.787584,-65.377182
04871,834077,9.788790,1.001362,0.502039,-0.009676,0.077695,-0.002391,-0.215866,-0.077834,1.017463,65.482871,-83.767329,-65.015820
04872,834177,9.819725,0.965740,0.496709,-0.012030,0.089499,0.000696,-0.218925,-0.075987,1.021562,65.057017,-83.745582,-64.593669
04873,834277,9.822161,0.923316,0.494651,-0.009784,0.097579,0.003073,-0.221996,-0.075160,1.026110,64.592059,-83.722742,-64.130877
04874,834377,9.788273,0.864859,0.493365,-0.003012,0.110555,0.002989,-0.222607,-0.070981,1.032836,64.073985,-83.696209,-63.610738
04875,834477,9.744936,0.854361,0.485962,0.004413,0.117933,0.003652,-0.230126,-0.070982,1.035333,63.528899,-83.667624,-63.059131
04876,834577,9.694020,0.896652,0.485698,0.010714,0.108912,0.003711,-0.230205,-0.068708,1.039958,63.033562,-83.640844,-62.553927
04877,834677,9.686331,0.968854,0.483908,0.011832,0.097829,0.005045,-0.236835,-0.066524,1.048579,62.590311,-83.617190,-62.100463
04878,834777,9.705703,1.047127,0.495677,0.006402,0.088119,0.011647,-0.237867,-0.061148,1.051358,62.175381,-83.599090,-61.678600
04879,834877,9.708999,1.075883,0.510676,0.004332,0.087315,0.012103,-0.239445,-0.060843,1.055881,61.764160,-83.581099,-61.261633
04880,834977,9.707112,1.045412,0.525598,0.012073,0.095830,0.016121,-0.242884,-0.054712,1.054185,61.311974,-83.562456,-60.798954
04881,835077,9.765283,0.936419,0.518870,0.032628,0.099797,0.018802,-0.244895,-0.049770,1.055938,60.850059,-83.543646,-60.314620
04882,835177,9.775799,0.773677,0.549924,0.059300,0.099557,0.019482,-0.247369,-0.045223,1.055666,60.405523,-83.524817,-59.832405
04883,835277,9.783365,0.650592,0.589734,0.077443,0.081430,0.013507,-0.251881,-0.045722,1.057139,60.068121,-83.507805,-59.447579
04884,835377,9.708114,0.673587,0.660139,0.085124,0.061519,0.002318,-0.249926,-0.035933,1.060646,59.851656,-83.490747,-59.180074
04885,835477,9.639282,0.798078,0.742019,0.086161,0.050068,-0.010112,-0.251966,-0.031064,1.063899,59.717949,-83.470746,-58.995293
04886,835577,9.615161,0.920608,0.728683,0.091006,0.062474,-0.021444,-0.253523,-0.024756,1.068227,59.563274,-83.441496,-58.786620
04887,835677,9.582095,1.008718,0.596722,0.106417,0.077540,-0.031441,-0.249732,-0.018872,1.079554,59.380005,-83.402857,-58.540258
04888,835777,9.585357,1.066251,0.420558,0.119054,0.073277,-0.036114,-0.247672,-0.007324,1.077640,59.236298,-83.363081,-58.326390
04889,835877,9.644600,1.042579,0.356299,0.118188,0.047118,-0.037382,-0.247765,-0.002109,1.083417,59.207380,-83.330315,-58.228549
04890,835977,9.701460,0.978171,0.503788,0.113744,0.018650,-0.035602,-0.247327,0.005662,1.087822,59.291408,-83.306771,-58.246979
04891,836077,9.756639,0.959725,0.697077,0.110718,-0.005842,-0.034854,-0.250380,0.010998,1.092099,59.474093,-83.290738,-58.366503
04892,836177,9.778922,0.901506,0.852294,0.105601,-0.031216,-0.036450,-0.245954,0.020699,1.096607,59.763491,-83.281210,-58.596466
04893,836277,9.748933,0.922644,0.874123,0.095658,-0.049227,-0.046186,-0.251044,0.027938,1.103484,60.145821,-83.271862,-58.925778
04894,836377,9.705692,1.015385,0.797456,0.090462,-0.034039,-0.055106,-0.247225,0.033396,1.113286,60.481407,-83.253522,-59.211043
04895,836477,9.636147,1.132312,0.616455,0.083240,-0.007919,-0.061147,-0.249777,0.040218,1.117640,60.715438,-83.224651,-59.398211
04896,836577,9.588961,1.186687,0.416259,0.081647,0.007180,-0.064207,-0.252318,0.048559,1.121569,60.890615,-83.189949,-59.527005
04897,836677,9.621784,1.223423,0.428542,0.076343,0.003166,-0.060819,-0.252417,0.050287,1.127169,61.070182,-83.158012,-59.663255
04898,836777,9.670902,1.176619,0.436465,0.066086,-0.017525,-0.050010,-0.250440,0.057158,1.129025,61.304007,-83.137155,-59.860051
04899,836877,9.755016,1.107733,0.508574,0.053262,-0.044107,-0.037517,-0.252044,0.057889,1.135072,61.611969,-83.129752,-60.138914
04900,836977,9.810925,1.077399,0.563974,0.048442,-0.059916,-0.025954,-0.251546,0.068296,1.136606,61.956976,-83.132280,-60.457868
04901,837077,9.813339,1.006690,0.592553,0.044644,-0.063351,-0.015946,-0.254647,0.068055,1.142603,62.292349,-83.140569,-60.769317
04902,837177,9.767397,0.985955,0.648568,0.048863,-0.059072,-0.013199,-0.253704,0.074347,1.146432,62.606757,-83.148909,-61.057225
04903,837277,9.707791,1.046863,0.653806,0.048021,-0.054945,-0.014991,-0.254758,0.078678,1.150159,62.907751,-83.155067,-61.332115
04904,837377,9.649567,1.118951,0.695566,0.042016,-0.044714,-0.018678,-0.252807,0.086474,1.153565,63.170147,-83.156522,-61.571594
04905,837477,9.674363,1.195196,0.689593,0.035072,-0.032337,-0.020856,-0.251384,0.087752,1.157640,63.380486,-83.153553,-61.762645
04906,837577,9.705614,1.246044,0.675371,0.031977,-0.021271,-0.019321,-0.246989,0.095886,1.163571,63.538359,-83.148461,-61.902626
04907,837677,9.782285,1.235905,0.667585,0.032395,-0.008921,-0.012458,-0.250585,0.097147,1.169644,63.628996,-83.143704,-61.974638
04908,837777,9.829631,1.171951,0.645050,0.039409,-0.002651,-0.001988,-0.246549,0.104654,1.168027,63.674654,-83.142716,-61.997295
04909,837877,9.903083,1.073204,0.609038,0.043214,-0.003064,0.011241,-0.251187,0.101350,1.175870,63.696302,-83.148626,-61.993580
04910,837977,9.930364,0.992289,0.620663,0.047051,-0.008025,0.017295,-0.249182,0.108294,1.176226,63.728586,-83.158905,-61.998381
04911,838077,9.849658,0.990105,0.662063,0.048045,-0.012019,0.021249,-0.251716,0.109708,1.178800,63.770247,-83.172227,-62.012073
04912,838177,9.764590,1.121937,0.743634,0.049192,-0.023155,0.023302,-0.251329,0.114867,1.185578,63.856246,-83.189418,-62.069765
04913,838277,9.706912,1.245516,0.769052,0.043602,-0.024315,0.019927,-0.254824,0.115895,1.186127,63.951529,-83.205150,-62.140027
04914,838377,9.624092,1.286477,0.721865,0.029443,-0.013918,0.016950,-0.255366,0.117277,1.188702,64.000326,-83.216721,-62.171627
04915,838477,9.579484,1.254608,0.643325,0.026759,-0.009816,0.019318,-0.252918,0.119608,1.191329,64.024920,-83.228476,-62.180385
04916,838577,9.604147,1.201416,0.579880,0.034491,-0.006274,0.021181,-0.252954,0.124968,1.194108,64.034676,-83.240300,-62.169724
04917,838677,9.665037,1.161444,0.539234,0.043554,-0.011720,0.024507,-0.251511,0.122333,1.196480,64.066299,-83.255202,-62.175843
04918,838777,9.669331,1.188193,0.564454,0.047812,-0.018942,0.026633,-0.249501,0.121353,1.195430,64.127494,-83.273004,-62.209266
04919,838877,9.706000,1.224567,0.563589,0.047303,-0.026750,0.026185,-0.248565,0.124158,1.199081,64.223844,-83.292516,-62.278363
04920,838977,9.736883,1.275706,0.560189,0.048776,-0.029585,0.027052,-0.242588,0.129021,1.199837,64.332175,-83.313164,-62.358644
04921,839077,9.702201,1.295543,0.562400,0.050378,-0.024460,0.030066,-0.241039,0.128644,1.196814,64.412980,-83.334080,-62.410257
04922,839177,9.693374,1.256033,0.516849,0.051416,-0.018560,0.029633,-0.242044,0.128635,1.197313,64.469545,-83.353304,-62.436839
04923,839277,9.675323,1.151271,0.521265,0.043426,-0.019625,0.029174,-0.236042,0.127118,1.195739,64.527488,-83.372549,-62.469403
04924,839377,9.685640,1.091079,0.473814,0.038712,-0.029640,0.029387,-0.232013,0.130639,1.193919,64.627296,-83.394361,-62.546821
04925,839477,9.723311,1.097654,0.486775,0.035635,-0.049157,0.033333,-0.228891,0.132424,1.186999,64.805251,-83.422971,-62.704669
04926,839577,9.749379,1.213332,0.571028,0.025275,-0.064527,0.034702,-0.226832,0.133557,1.183552,65.045388,-83.455955,-62.931057
04927,839677,9.721984,1.295646,0.656543,0.012153,-0.066968,0.036099,-0.227244,0.129820,1.178350,65.288545,-83.490138,-63.168019
04928,839777,9.673842,1.348508,0.639753,0.005308,-0.059925,0.034482,-0.219595,0.130657,1.168882,65.501338,-83.521688,-63.378323
04929,839877,9.565595,1.351064,0.484244,0.011804,-0.050582,0.025541,-0.219054,0.128777,1.166281,65.695433,-83.546271,-63.566012
04930,839977,9.428072,1.244519,0.317259,0.028917,-0.049384,0.018971,-0.217869,0.125281,1.155583,65.908920,-83.567061,-63.763297
04931,840077,9.346057,1.093775,0.202619,0.053272,-0.069305,0.016600,-0.213176,0.123272,1.143961,66.235554,-83.591134,-64.060361
04932,840177,9.342534,0.974070,0.190827,0.078078,-0.093106,0.013509,-0.211017,0.122678,1.134915,66.696965,-83.618800,-64.478710
04933,840277,9.334510,0.887172,0.235662,0.100452,-0.113491,0.010912,-0.209300,0.117776,1.122141,67.276932,-83.649239,-65.003426
04934,840377,9.294473,0.810439,0.321927,0.111780,-0.124098,0.010071,-0.204962,0.113171,1.102370,67.921137,-83.680926,-65.586228
04935,840477,9.273640,0.758512,0.394314,0.117281,-0.127061,0.011183,-0.206662,0.110984,1.086223,68.586827,-83.713098,-66.187466
04936,840577,9.220463,0.703531,0.435151,0.112303,-0.133875,0.016356,-0.204831,0.107367,1.067502,69.279796,-83.748657,-66.819016
04937,840677,9.245092,0.607677,0.399593,0.109072,-0.141291,0.023944,-0.200495,0.106226,1.048409,70.001349,-83.788919,-67.481183
04938,840777,9.348999,0.508609,0.425757,0.098687,-0.151318,0.035343,-0.193578,0.104290,1.024268,70.756045,-83.836337,-68.182684
04939,840877,9.526057,0.458899,0.448489,0.104049,-0.151667,0.047812,-0.190728,0.103197,1.004675,71.505544,-83.889588,-68.875875
04940,840977,9.611891,0.442226,0.349289,0.131387,-0.135574,0.060129,-0.188293,0.101830,0.980558,72.180221,-83.945752,-69.478069
04941,841077,9.583443,0.448058,0.287466,0.156802,-0.128632,0.059679,-0.189469,0.103669,0.963615,72.845935,-83.999731,-70.056611
04942,841177,9.606437,0.304156,0.268871,0.173032,-0.151844,0.049735,-0.185671,0.106900,0.947250,73.670078,-84.051298,-70.785123
04943,841277,9.718216,0.195003,0.274003,0.197701,-0.170308,0.037699,-0.183825,0.111255,0.928935,74.638258,-84.097936,-71.644268
04944,841377,9.824012,0.219874,0.348854,0.218059,-0.181859,0.024906,-0.184475,0.118614,0.911272,75.712608,-84.137602,-72.598454
04945,841477,9.922159,0.246805,0.379131,0.226175,-0.192294,0.018405,-0.184624,0.122005,0.892906,76.870453,-84.173163,-73.631939
04946,841577,10.028780,0.276191,0.390785,0.235123,-0.204773,0.015846,-0.186785,0.130337,0.876293,78.118354,-84.206631,-74.750830
04947,841677,10.091904,0.405809,0.416705,0.252826,-0.210309,0.013640,-0.189558,0.136892,0.865601,79.422807,-84.236954,-75.916398
04948,841777,10.053977,0.546357,0.421327,0.280730,-0.210633,0.001360,-0.190716,0.149194,0.849192,80.768854,-84.257660,-77.107724
04949,841877,10.047002,0.681144,0.508308,0.300827,-0.213047,-0.014087,-0.190002,0.155695,0.838501,82.160756,-84.266964,-78.333602
04950,841977,10.106025,0.889070,0.653940,0.304513,-0.210377,-0.033874,-0.193669,0.162531,0.822311,83.555963,-84.261846,-79.560734
04951,842077,10.229996,1.085624,0.787674,0.291722,-0.194050,-0.053819,-0.191971,0.167996,0.812070,84.858503,-84.241528,-80.702172
04952,842177,10.361464,1.277606,0.819448,0.266322,-0.171634,-0.072831,-0.189389,0.177615,0.808555,86.018379,-84.206876,-81.714934
04953,842277,10.354879,1.433526,0.790405,0.244563,-0.153764,-0.084532,-0.192292,0.178876,0.804106,87.055767,-84.162961,-82.617192
04954,842377,10.201613,1.502162,0.681278,0.235888,-0.155184,-0.097798,-0.190249,0.186414,0.802489,88.083850,-84.109842,-83.515168
04955,842477,9.999104,1.373569,0.665333,0.244905,-0.175406,-0.113789,-0.186200,0.190979,0.799720,89.212119,-84.046115,-84.508781
04956,842577,9.772761,1.169221,0.658124,0.263286,-0.203468,-0.132556,-0.184185,0.193487,0.798848,90.479749,-83.969548,-85.632098
04957,842677,9.573314,0.897681,0.639917,0.278882,-0.226250,-0.152821,-0.181756,0.194774,0.802423,91.844302,-83.878435,-86.844143
04958,842777,9.396662,0.678723,0.633701,0.278427,-0.230827,-0.162896,-0.177233,0.196294,0.800502,93.191335,-83.778437,-88.039144
04959,842877,9.275885,0.453606,0.668985,0.275668,-0.217757,-0.162982,-0.174778,0.197154,0.802553,94.428573,-83.676027,-89.125642
04960,842977,9.223316,0.270037,0.657574,0.263648,-0.195922,-0.150301,-0.168663,0.201382,0.795761,95.517066,-83.579564,-90.069765
04961,843077,9.266735,0.211158,0.666102,0.250422,-0.176024,-0.127396,-0.164704,0.202742,0.797338,96.481300,-83.495498,-90.896795
04962,843177,9.363579,0.295515,0.664950,0.229896,-0.174500,-0.095336,-0.165135,0.203915,0.793890,97.423634,-83.428248,-91.713906
04963,843277,9.517260,0.514916,0.658883,0.203372,-0.190190,-0.069406,-0.165533,0.208149,0.789094,98.427778,-83.372914,-92.608776
04964,843377,9.663682,0.728214,0.616370,0.170251,-0.199415,-0.058115,-0.161045,0.211067,0.789248,99.450526,-83.321349,-93.541692
04965,843477,9.653797,0.911418,0.568093,0.146376,-0.205006,-0.059753,-0.163009,0.211171,0.787748,100.469597,-83.266395,-94.484873
04966,843577,9.634048,1.052989,0.486281,0.127117,-0.201141,-0.068257,-0.159994,0.215656,0.786978,101.435163,-83.205184,-95.385467
04967,843677,9.680036,1.061469,0.329166,0.112362,-0.187591,-0.083648,-0.160987,0.217166,0.787054,102.296730,-83.135263,-96.190012
04968,843777,9.680042,1.024573,0.287699,0.089301,-0.185050,-0.099362,-0.157442,0.218750,0.784133,103.099766,-83.055501,-96.949095
04969,843877,9.724587,0.962361,0.324506,0.076462,-0.197531,-0.110474,-0.159970,0.224150,0.786910,103.921521,-82.966600,-97.734658
04970,843977,9.760541,0.971612,0.466053,0.072084,-0.217244,-0.117358,-0.158878,0.225371,0.781963,104.799893,-82.869675,-98.580048
04971,844077,9.835568,1.029544,0.637124,0.064364,-0.228701,-0.122304,-0.161266,0.226174,0.776490,105.694336,-82.766699,-99.446382
04972,844177,9.874818,1.092477,0.741865,0.051174,-0.225756,-0.123137,-0.157204,0.227798,0.772569,106.542713,-82.662107,-100.274202
04973,844277,9.872536,1.127089,0.787571,0.032871,-0.209440,-0.130551,-0.159145,0.225483,0.769443,107.278933,-82.554738,-100.999810
04974,844377,9.902438,1.158899,0.857364,0.019529,-0.185539,-0.141551,-0.157537,0.226745,0.763496,107.873743,-82.444430,-101.590796
04975,844477,9.898013,1.252613,0.820613,0.016966,-0.164173,-0.157511,-0.156490,0.223884,0.760345,108.342216,-82.328533,-102.056067
04976,844577,9.810377,1.313587,0.730418,0.003030,-0.151514,-0.174421,-0.155907,0.219633,0.755119,108.715829,-82.205311,-102.433890
04977,844677,9.781853,1.299760,0.683721,-0.009630,-0.145521,-0.185607,-0.154843,0.215824,0.750918,109.032132,-82.076839,-102.761390
04978,844777,9.752394,1.202426,0.689244,-0.019664,-0.147020,-0.192637,-0.153843,0.212843,0.750266,109.328719,-81.944050,-103.074998
04979,844877,9.719338,1.045669,0.741991,-0.021767,-0.144543,-0.195111,-0.153372,0.207805,0.751011,109.601582,-81.810193,-103.366098
04980,844977,9.730376,0.882151,0.743217,-0.024796,-0.150451,-0.190746,-0.152346,0.203899,0.748809,109.891200,-81.677360,-103.676138
04981,845077,9.716335,0.798231,0.774707,-0.031480,-0.146938,-0.181266,-0.154351,0.196458,0.748427,110.167468,-81.550115,-103.976832
04982,845177,9.642008,0.824185,0.768092,-0.049805,-0.134489,-0.168337,-0.151366,0.194417,0.748327,110.397535,-81.432114,-104.241694
04983,845277,9.547209,0.926045,0.706970,-0.075086,-0.124493,-0.159606,-0.152349,0.191492,0.747175,110.582896,-81.320675,-104.476224
04984,845377,9.448164,1.027177,0.650432,-0.090694,-0.121295,-0.155753,-0.149865,0.187965,0.746997,110.748008,-81.211852,-104.699520
04985,845477,9.418146,1.094579,0.611491,-0.091294,-0.119893,-0.155421,-0.149266,0.181769,0.740670,110.903646,-81.103408,-104.913771
04986,845577,9.464419,1.041147,0.538150,-0.086498,-0.112041,-0.158661,-0.146228,0.183336,0.738248,111.026836,-80.994772,-105.092587
04987,845677,9.563238,0.897648,0.540262,-0.080458,-0.109234,-0.159929,-0.150670,0.175580,0.734841,111.138872,-80.885992,-105.256810
04988,845777,9.702527,0.756529,0.656127,-0.074782,-0.100529,-0.157978,-0.144660,0.178049,0.733470,111.224727,-80.780027,-105.391454
04989,845877,9.888467,0.667443,0.830653,-0.068251,-0.083967,-0.147930,-0.147133,0.177638,0.732445,111.270653,-80.682860,-105.482108
04990,845977,10.065296,0.711507,0.956270,-0.065502,-0.065658,-0.133673,-0.145643,0.180580,0.733097,111.275638,-80.597123,-105.529926
04991,846077,10.168827,0.751564,1.013144,-0.064635,-0.042917,-0.121861,-0.141753,0.178781,0.738020,111.222593,-80.522436,-105.518662
04992,846177,10.250950,0.790286,1.019193,-0.072584,-0.032069,-0.108270,-0.143778,0.181706,0.740172,111.147724,-80.457270,-105.490119
04993,846277,10.279160,0.898141,1.052823,-0.074855,-0.013437,-0.099990,-0.140902,0.185829,0.746899,111.023398,-80.400379,-105.412962
04994,846377,10.140913,0.997228,1.054161,-0.069702,0.005029,-0.095531,-0.135507,0.190484,0.752152,110.850377,-80.349634,-105.283621
04995,846477,10.008029,0.957404,1.021812,-0.077059,0.015238,-0.095380,-0.133068,0.192791,0.755279,110.642829,-80.300981,-105.123724
04996,846577,10.033461,0.932260,1.046144,-0.084777,0.028831,-0.095228,-0.132204,0.196898,0.763005,110.390321,-80.255044,-104.922895
04997,846677,10.190844,1.072752,1.026687,-0.088305,0.059210,-0.098234,-0.122308,0.201031,0.767235,110.039683,-80.213337,-104.624721
04998,846777,10.279994,1.195831,0.871262,-0.103891,0.087024,-0.097724,-0.114902,0.205204,0.771465,109.596745,-80.176962,-104.242086
04999,846877,10.269092,1.352440,0.573922,-0.112892,0.085594,-0.092136,-0.112582,0.208195,0.781139,109.162187,-80.142839,-103.873281
05000,846977,10.150313,1.426527,0.296421,-0.094581,0.065096,-0.082063,-0.103654,0.212914,0.783895,108.815294,-80.109921,-103.582869
05001,847077,10.027041,1.249451,0.048916,-0.058506,0.030150,-0.078864,-0.097815,0.213455,0.791445,108.602960,-80.072075,-103.408131
05002,847177,10.059290,0.887354,-0.059351,-0.016882,0.004385,-0.080153,-0.090963,0.222948,0.799452,108.494249,-80.028757,-103.314491
05003,847277,10.172694,0.607547,-0.206052,0.025798,-0.014138,-0.074173,-0.086966,0.224403,0.799030,108.473997,-79.985318,-103.285978
05004,847377,10.287720,0.594343,-0.415484,0.058886,-0.032597,-0.059864,-0.083000,0.229250,0.800785,108.544143,-79.946311,-103.330146
05005,847477,10.350559,0.775475,-0.516823,0.084051,-0.051019,-0.038983,-0.083401,0.231492,0.795888,108.705993,-79.915268,-103.452920
05006,847577,10.481026,1.034568,-0.493262,0.107743,-0.064513,-0.019681,-0.079799,0.239175,0.790772,108.941646,-79.892135,-103.636963
05007,847677,10.708061,1.331406,-0.495948,0.132690,-0.070929,-0.003745,-0.080194,0.244904,0.786053,109.226865,-79.876293,-103.856900
05008,847777,10.883733,1.563938,-0.573309,0.157780,-0.076588,-0.002271,-0.076544,0.248247,0.777710,109.544336,-79.859977,-104.095033
05009,847877,10.904161,1.651195,-0.672602,0.181968,-0.083172,-0.006293,-0.075527,0.254733,0.777541,109.890218,-79.839984,-104.347969
05010,847977,10.735112,1.511949,-0.583102,0.200654,-0.077273,-0.012271,-0.075788,0.263290,0.765952,110.221386,-79.817679,-104.575123
05011,848077,10.588724,1.309371,-0.376277,0.204981,-0.058510,-0.011498,-0.071764,0.274236,0.765512,110.498716,-79.799329,-104.745139
05012,848177,10.473953,1.132428,-0.209210,0.184031,-0.038897,-0.003628,-0.065204,0.280305,0.761821,110.713743,-79.789038,-104.864158
05013,848277,10.430151,1.008753,-0.136853,0.147129,-0.012518,0.015833,-0.062730,0.297085,0.765184,110.850904,-79.794483,-104.925664
05014,848377,10.392094,1.017376,-0.133175,0.109565,0.024037,0.040180,-0.056644,0.305701,0.760620,110.885441,-79.820419,-104.904884
05015,848477,10.332100,1.027426,-0.202295,0.081838,0.061997,0.073099,-0.051053,0.321774,0.756937,110.827950,-79.871731,-104.806864
05016,848577,10.316622,0.989683,-0.362812,0.068859,0.097830,0.098402,-0.038990,0.340709,0.753907,110.682860,-79.943851,-104.627539
05017,848677,10.306699,0.986992,-0.524842,0.055770,0.133071,0.111902,-0.030406,0.353770,0.749572,110.435699,-80.030198,-104.352304
05018,848777,10.320215,1.161587,-0.748606,0.033859,0.161831,0.121142,-0.020332,0.374730,0.746644,110.092944,-80.126968,-103.992882
05019,848877,10.325558,1.449402,-0.866724,0.026485,0.175870,0.123354,-0.009252,0.395698,0.743216,109.697493,-80.227257,-103.584366
05020,848977,10.259378,1.709726,-1.077626,0.022305,0.188307,0.113226,0.002850,0.415727,0.738238,109.240616,-80.323914,-103.116014
05021,849077,10.000170,1.949562,-1.479538,0.016890,0.179119,0.100721,0.016390,0.435089,0.736234,108.787185,-80.411430,-102.654292
05022,849177,9.631535,2.079056,-1.834008,-0.000499,0.138230,0.090626,0.026507,0.454674,0.730731,108.437230,-80.485419,-102.307516
05023,849277,9.251142,2.195724,-1.953330,-0.019963,0.072660,0.073124,0.034685,0.472444,0.722126,108.266301,-80.537777,-102.153383
05024,849377,8.886848,2.181850,-1.787597,-0.039278,0.019320,0.058261,0.043481,0.490020,0.706998,108.241547,-80.572413,-102.158442
05025,849477,8.500565,2.134241,-1.523870,-0.062502,0.004909,0.051848,0.053403,0.501963,0.684070,108.243872,-80.600958,-102.204230
05026,849577,8.164452,2.185738,-1.412602,-0.093840,0.007248,0.048069,0.060850,0.517955,0.660843,108.216583,-80.627852,-102.237986
05027,849677,8.001410,2.335163,-1.522991,-0.136985,0.019077,0.052263,0.066526,0.528104,0.624791,108.130035,-80.659128,-102.236491
05028,849777,7.978602,2.550538,-1.657845,-0.171458,0.030757,0.052981,0.072696,0.536252,0.588637,107.985429,-80.692846,-102.195894
05029,849877,8.049174,2.799993,-1.756856,-0.183970,0.049525,0.043942,0.074856,0.545886,0.554058,107.760633,-80.724886,-102.080992
05030,849977,8.231770,2.880860,-1.640365,-0.159116,0.068348,0.018425,0.078046,0.548151,0.516598,107.458768,-80.746138,-101.873270
05031,850077,8.713928,2.668788,-1.451425,-0.089519,0.094119,-0.025596,0.071167,0.553274,0.485286,107.063301,-80.747456,-101.530057
05032,850177,9.453231,2.303442,-1.200599,0.000822,0.117839,-0.077218,0.069161,0.560022,0.460075,106.587774,-80.723956,-101.053093
05033,850277,10.189737,1.948818,-1.024453,0.081863,0.120120,-0.122827,0.064647,0.556845,0.434355,106.109241,-80.675096,-100.525881
05034,850377,10.696891,1.746681,-1.037489,0.120982,0.101514,-0.159585,0.059986,0.559736,0.417462,105.686183,-80.602380,-100.032019
05035,850477,10.942558,1.698712,-1.025770,0.113875,0.060240,-0.186244,0.055277,0.562008,0.403042,105.378704,-80.508096,-99.659279
05036,850577,10.932904,1.802442,-1.012561,0.096933,0.015745,-0.198855,0.055468,0.564981,0.393173,105.202850,-80.399855,-99.429684
05037,850677,10.743254,1.909356,-0.841170,0.077627,-0.023743,-0.200766,0.046540,0.565718,0.391196,105.146608,-80.284553,-99.332506
05038,850777,10.474278,2.002649,-0.686601,0.057908,-0.036373,-0.194022,0.047729,0.570170,0.381404,105.127143,-80.171074,-99.284016
05039,850877,10.260600,2.062678,-0.674809,0.027644,-0.029800,-0.181522,0.046811,0.572371,0.377506,105.081160,-80.065480,-99.226126
05040,850977,10.002217,2.134047,-0.734748,-0.022083,-0.018794,-0.166250,0.049915,0.579564,0.372365,104.986369,-79.969953,-99.147503
05041,851077,9.775078,2.161083,-0.756976,-0.073785,-0.008041,-0.154831,0.049940,0.583100,0.371543,104.839839,-79.882295,-99.046301
05042,851177,9.606440,2.142769,-0.769215,-0.107461,0.005502,-0.144630,0.056827,0.591692,0.377501,104.642799,-79.802203,-98.913266
05043,851277,9.468075,2.032550,-0.789965,-0.115504,0.020699,-0.136556,0.066252,0.595407,0.380206,104.403645,-79.728674,-98.742000
05044,851377,9.425178,1.848911,-0.741017,-0.106776,0.024133,-0.127652,0.072703,0.602681,0.382588,104.168840,-79.660442,-98.569974
05045,851477,9.374176,1.641041,-0.551843,-0.094315,0.020166,-0.109637,0.087501,0.609010,0.391445,103.969457,-79.601551,-98.426645
05046,851577,9.246357,1.541586,-0.373346,-0.071561,0.017486,-0.092399,0.098979,0.615828,0.391304,103.805890,-79.551796,-98.306462
05047,851677,9.092121,1.531105,-0.360792,-0.045246,0.009196,-0.079590,0.107310,0.621785,0.399634,103.693017,-79.507987,-98.222487
05048,851777,8.991230,1.564622,-0.436972,-0.042824,-0.003691,-0.066067,0.116253,0.624560,0.401289,103.630779,-79.469939,-98.188585
05049,851877,8.875950,1.767728,-0.391762,-0.054575,-0.009749,-0.057706,0.115754,0.624070,0.401263,103.586310,-79.435721,-98.179572
05050,851977,8.673145,2.011386,-0.338788,-0.069079,0.002385,-0.053035,0.122395,0.628362,0.392972,103.500943,-79.405725,-98.137353
05051,852077,8.554530,2.150310,-0.334483,-0.087436,0.017760,-0.054416,0.124442,0.627478,0.389923,103.358775,-79.376981,-98.047969
05052,852177,8.611149,2.185539,-0.248026,-0.100203,0.028595,-0.058915,0.124974,0.626072,0.387848,103.174663,-79.347097,-97.923274
05053,852277,8.827374,2.207654,-0.201483,-0.080708,0.059214,-0.061848,0.127046,0.623766,0.383223,102.909929,-79.319435,-97.705103
05054,852377,9.020370,2.173908,-0.274185,-0.041571,0.103958,-0.063775,0.126943,0.623003,0.388695,102.535233,-79.296107,-97.352133
05055,852477,9.076776,2.117787,-0.352921,-0.001284,0.134530,-0.059140,0.126474,0.618623,0.386467,102.097719,-79.278635,-96.911657
05056,852577,9.093157,1.993529,-0.242135,0.031609,0.145941,-0.053636,0.127772,0.617595,0.396939,101.650074,-79.264952,-96.441636
05057,852677,9.156036,1.901145,-0.040825,0.053953,0.155155,-0.047683,0.124073,0.612637,0.407704,101.192605,-79.254960,-95.948565
05058,852777,9.224328,1.847296,0.104401,0.065172,0.162899,-0.039328,0.129324,0.609481,0.419574,100.724176,-79.249762,-95.437805
05059,852877,9.340117,1.745332,0.165996,0.075460,0.168846,-0.032529,0.128157,0.607569,0.428494,100.248106,-79.248223,-94.913300
05060,852977,9.538230,1.639001,0.155552,0.091453,0.181098,-0.020904,0.127082,0.604900,0.432366,99.750841,-79.253628,-94.357954
05061,853077,9.689662,1.634226,0.102880,0.112073,0.196364,-0.001045,0.122486,0.598728,0.437557,99.228944,-79.270773,-93.765586
05062,853177,9.698662,1.783088,0.100119,0.126976,0.209096,0.018742,0.124477,0.603156,0.438286,98.684714,-79.299217,-93.141877
05063,853277,9.596040,1.952067,0.138055,0.122289,0.214319,0.033665,0.122907,0.601991,0.442233,98.125372,-79.335430,-92.505603
05064,853377,9.409141,2.099342,0.209553,0.098819,0.211503,0.044823,0.128880,0.604861,0.442888,97.561504,-79.376586,-91.878483
05065,853477,9.253620,2.140466,0.237829,0.070884,0.215462,0.059411,0.127932,0.610952,0.441193,96.970356,-79.425139,-91.239975
05066,853577,9.180546,2.004919,0.240266,0.047828,0.222637,0.073467,0.134374,0.618203,0.444075,96.343120,-79.480904,-90.578306
05067,853677,9.241298,1.756322,0.227434,0.036619,0.225247,0.090931,0.142833,0.623501,0.445357,95.699936,-79.545422,-89.907105
05068,853777,9.370618,1.533177,0.256387,0.038555,0.214918,0.114717,0.146259,0.630726,0.449737,95.088468,-79.621604,-89.267232
05069,853877,9.416013,1.428490,0.342541,0.047311,0.187470,0.140475,0.153199,0.632512,0.451840,94.565477,-79.710016,-88.712437
05070,853977,9.430199,1.497802,0.456986,0.051770,0.154700,0.158303,0.155133,0.636298,0.455543,94.143828,-79.806359,-88.258266
05071,854077,9.395385,1.636843,0.575646,0.051000,0.142699,0.164419,0.159684,0.637890,0.452122,93.753144,-79.905146,-87.836204
05072,854177,9.226310,1.823879,0.718559,0.045268,0.145957,0.163194,0.162687,0.645814,0.452529,93.340271,-80.002816,-87.395123
05073,854277,9.139137,1.945322,0.662372,0.038079,0.170483,0.155781,0.163826,0.648152,0.445134,92.833186,-80.096371,-86.862730
05074,854377,9.124762,1.999502,0.452736,0.028913,0.185023,0.153138,0.163858,0.650716,0.443762,92.262431,-80.187902,-86.271191
05075,854477,9.260534,1.885589,0.331401,0.018409,0.165828,0.155871,0.167360,0.648217,0.442636,91.739141,-80.279632,-85.734083
05076,854577,9.504467,1.724083,0.432356,0.011296,0.135176,0.165063,0.166776,0.647012,0.447083,91.305826,-80.375389,-85.292562
05077,854677,9.651602,1.554903,0.763906,0.023120,0.110847,0.180866,0.162097,0.641121,0.456798,90.954378,-80.479409,-84.927405
05078,854777,9.682340,1.442227,1.091072,0.040798,0.104920,0.198195,0.161505,0.640390,0.461771,90.626205,-80.592945,-84.575814
05079,854877,9.740913,1.395641,1.369599,0.055624,0.124097,0.202551,0.162766,0.639266,0.474241,90.231070,-80.708691,-84.148022
05080,854977,9.679047,1.481000,1.493336,0.059837,0.154427,0.200777,0.164567,0.635763,0.484085,89.720328,-80.822855,-83.600951
05081,855077,9.531875,1.598235,1.510755,0.051484,0.182078,0.193316,0.167425,0.635877,0.491109,89.092498,-80.931694,-82.940443
05082,855177,9.364641,1.599196,1.497061,0.043461,0.202230,0.190150,0.177765,0.640356,0.498363,88.371485,-81.037214,-82.190563
05083,855277,9.282950,1.491181,1.480725,0.041519,0.202968,0.193226,0.181582,0.645316,0.508140,87.628639,-81.142959,-81.420058
05084,855377,9.275538,1.379448,1.443597,0.048899,0.184331,0.199974,0.193886,0.649691,0.516895,86.939656,-81.251563,-80.700138
05085,855477,9.240838,1.276370,1.452113,0.052453,0.157073,0.203604,0.201858,0.656017,0.517727,86.336640,-81.361900,-80.065480
05086,855577,9.181032,1.203949,1.527955,0.059173,0.135089,0.203266,0.214831,0.662811,0.517587,85.805253,-81.471944,-79.499708
05087,855677,9.068715,1.205353,1.586479,0.070859,0.119359,0.198294,0.230824,0.671623,0.516051,85.328404,-81.579090,-78.982622
05088,855777,9.082858,1.213809,1.656872,0.084630,0.103092,0.194388,0.242819,0.678480,0.514910,84.911419,-81.684194,-78.518371
05089,855877,9.228824,1.198656,1.758753,0.098915,0.096451,0.190995,0.261329,0.691785,0.512603,84.518762,-81.787227,-78.070726
05090,855977,9.477428,1.248302,1.827495,0.121569,0.109250,0.182356,0.277894,0.705739,0.507822,84.080739,-81.884129,-77.564422
05091,856077,9.815465,1.324027,1.829612,0.137694,0.143249,0.173298,0.292604,0.719090,0.495492,83.507273,-81.973118,-76.912271
05092,856177,10.316747,1.479061,1.749725,0.145061,0.205165,0.154246,0.314126,0.734388,0.492287,82.681974,-82.045867,-76.001831
05093,856277,10.835612,1.892873,1.483065,0.140364,0.278703,0.126086,0.325712,0.749916,0.487581,81.554305,-82.094666,-74.789029
05094,856377,10.945577,2.488798,1.009074,0.128497,0.300824,0.101029,0.344669,0.765559,0.488400,80.332794,-82.123819,-73.488421
05095,856477,10.748343,2.800238,0.471625,0.091629,0.244457,0.074388,0.359523,0.777489,0.495037,79.332093,-82.140145,-72.431980
05096,856577,10.696726,2.737173,0.283298,0.008787,0.152765,0.043304,0.371453,0.789136,0.498149,78.679180,-82.146890,-71.774408
05097,856677,10.876969,2.640523,0.220058,-0.102087,0.058132,0.012284,0.385759,0.799459,0.507209,78.373019,-82.146230,-71.530855
05098,856777,11.094870,2.549692,0.239380,-0.215261,-0.010634,-0.014862,0.397559,0.811267,0.517344,78.304585,-82.138179,-71.592604
05099,856877,11.489614,2.366825,0.329000,-0.270886,-0.028274,-0.038474,0.415298,0.816930,0.528676,78.295685,-82.118928,-71.746530
05100,856977,11.817156,2.191395,0.266095,-0.245226,-0.003549,-0.049575,0.427943,0.832299,0.547511,78.210507,-82.090579,-71.808532
05101,857077,11.833522,2.156750,0.161368,-0.176221,-0.004689,-0.052018,0.443927,0.842767,0.573616,78.171571,-82.060998,-71.877222
05102,857177,11.525561,2.141997,-0.124149,-0.146077,-0.068256,-0.052797,0.455271,0.853396,0.608241,78.405416,-82.038354,-72.203790
05103,857277,11.169380,1.941706,-0.215322,-0.219065,-0.185849,-0.062289,0.457918,0.855135,0.653928,79.075062,-82.023181,-73.012547
05104,857377,11.068383,1.639059,-0.129044,-0.343434,-0.268957,-0.069324,0.466046,0.847369,0.698134,80.009674,-82.011132,-74.160782
05105,857477,10.942706,1.400796,-0.106896,-0.429502,-0.282446,-0.072657,0.461152,0.831692,0.744928,80.948007,-81.995890,-75.362583
05106,857577,10.678142,1.478622,-0.041634,-0.434627,-0.261458,-0.075476,0.446608,0.810227,0.800936,81.796148,-81.974660,-76.476291
05107,857677,10.376426,1.655919,0.182300,-0.372933,-0.215313,-0.089815,0.428789,0.788375,0.845397,82.496216,-81.939594,-77.404799
05108,857777,10.037569,1.848408,0.396256,-0.270725,-0.152405,-0.111411,0.413940,0.765929,0.890833,83.006471,-81.886341,-78.082504
05109,857877,9.638091,1.929125,0.590342,-0.135687,-0.085974,-0.147653,0.398208,0.745283,0.930347,83.339293,-81.807246,-78.502885
05110,857977,9.168252,1.862965,0.621584,-0.021049,-0.025385,-0.179624,0.387918,0.729412,0.972616,83.507266,-81.705716,-78.690401
05111,858077,8.663025,1.572422,0.367676,0.072146,0.038739,-0.204520,0.381302,0.713966,1.004890,83.487739,-81.585815,-78.634467
05112,858177,8.251291,1.133538,-0.153300,0.155260,0.078214,-0.219176,0.379636,0.707290,1.040122,83.373451,-81.454975,-78.434534
05113,858277,8.104290,0.679415,-0.823245,0.228434,0.097011,-0.222699,0.376619,0.698033,1.067204,83.237156,-81.320814,-78.169829
05114,858377,8.209545,0.288259,-1.449949,0.272922,0.084498,-0.209289,0.376822,0.693791,1.082520,83.172416,-81.195071,-77.951581
05115,858477,8.358600,0.164366,-1.842963,0.293107,0.045742,-0.180919,0.376332,0.682910,1.080462,83.251390,-81.088111,-77.866930
05116,858577,8.452969,0.264496,-1.994442,0.282740,-0.002494,-0.144974,0.370640,0.676800,1.064110,83.482850,-81.004851,-77.942533
05117,858677,8.627660,0.440442,-2.050769,0.250482,-0.052051,-0.118038,0.358211,0.662484,1.033805,83.859548,-80.940013,-78.183799
05118,858777,8.973009,0.636049,-1.911518,0.200451,-0.103857,-0.093282,0.344018,0.641850,0.990148,84.378668,-80.892047,-78.598236
05119,858877,9.465721,0.862774,-1.467650,0.146947,-0.120970,-0.077673,0.322845,0.623295,0.947091,84.918099,-80.853312,-79.064248
05120,858977,9.984087,1.247005,-0.829852,0.093284,-0.083285,-0.071317,0.297441,0.604963,0.890512,85.287751,-80.815787,-79.389413
05121,859077,10.539559,1.641120,-0.446795,0.037997,-0.030034,-0.073568,0.269165,0.586181,0.854450,85.436328,-80.774280,-79.522690
05122,859177,10.962572,2.091315,-0.288131,-0.008506,0.022596,-0.076587,0.248876,0.577238,0.818898,85.373767,-80.728615,-79.468972
05123,859277,11.184623,2.592337,-0.181684,-0.031095,0.059569,-0.088369,0.224716,0.565868,0.803761,85.173710,-80.674445,-79.288912
05124,859377,11.011012,2.901012,-0.271234,-0.036931,0.086900,-0.117182,0.208810,0.559266,0.800902,84.887059,-80.602335,-79.024272
05125,859477,10.631565,2.840831,-0.638633,-0.040166,0.052198,-0.154457,0.192876,0.547136,0.798762,84.733312,-80.510574,-78.895970
05126,859577,10.269269,2.443115,-0.695876,-0.036846,-0.021239,-0.175164,0.180712,0.538848,0.808848,84.838875,-80.410806,-79.028477
05127,859677,9.936517,1.964310,-0.396147,-0.005562,-0.083318,-0.172577,0.168062,0.527627,0.817782,85.166802,-80.315529,-79.368294
05128,859777,9.688807,1.481285,-0.010652,0.049507,-0.111430,-0.155224,0.156929,0.512967,0.825038,85.608432,-80.231084,-79.791551
05129,859877,9.512073,1.066887,0.241931,0.095331,-0.092460,-0.124476,0.142280,0.497792,0.833768,85.999267,-80.162907,-80.136786
05130,859977,9.326723,0.799192,0.345793,0.124604,-0.055258,-0.077299,0.137190,0.483205,0.837528,86.269787,-80.119938,-80.343048
05131,860077,9.089156,0.721517,0.338983,0.131482,-0.018575,-0.024658,0.128471,0.467317,0.848733,86.411362,-80.105612,-80.414557
05132,860177,8.926188,0.771757,0.223582,0.123823,0.019901,0.031765,0.120359,0.455671,0.854644,86.410585,-80.122165,-80.346115
05133,860277,8.902395,0.901719,0.087458,0.107891,0.058361,0.083495,0.113221,0.441470,0.861428,86.262842,-80.166878,-80.137844
05134,860377,8.965379,1.134405,-0.132590,0.087236,0.082750,0.126406,0.112130,0.429834,0.864842,86.010833,-80.235058,-79.835824
05135,860477,8.961257,1.381296,-0.237054,0.064338,0.083522,0.151951,0.105535,0.419707,0.869829,85.732791,-80.317564,-79.520745
05136,860577,9.000994,1.619378,-0.269589,0.042869,0.063566,0.162750,0.104565,0.413840,0.867525,85.501820,-80.406871,-79.265911
05137,860677,9.063598,1.719373,-0.315248,0.027781,0.036090,0.154773,0.100023,0.406816,0.869667,85.353539,-80.492730,-79.103689
05138,860777,9.079716,1.690173,-0.279854,0.019819,0.001766,0.135952,0.100127,0.402621,0.863441,85.321273,-80.569395,-79.063679
05139,860877,9.124873,1.607031,-0.247222,0.017207,-0.039952,0.114636,0.093686,0.396367,0.860609,85.437445,-80.635816,-79.175598
05140,860977,9.149349,1.484824,-0.157672,0.011214,-0.075179,0.098426,0.091866,0.393867,0.850960,85.678989,-80.694485,-79.417997
05141,861077,9.097889,1.366786,-0.083683,0.003068,-0.100133,0.090823,0.090980,0.388217,0.844157,86.008365,-80.749654,-79.754071
05142,861177,8.962885,1.317495,0.042725,-0.013435,-0.113299,0.085983,0.088775,0.387508,0.828586,86.379798,-80.802230,-80.142284
05143,861277,8.829609,1.325379,0.206112,-0.028406,-0.116226,0.083607,0.089507,0.383144,0.815337,86.757816,-80.853145,-80.545818
05144,861377,8.863730,1.315231,0.347562,-0.037473,-0.095388,0.080546,0.086703,0.383175,0.805315,87.061025,-80.901286,-80.878825
05145,861477,9.013362,1.255359,0.371308,-0.040695,-0.057114,0.079894,0.084971,0.378424,0.790541,87.228324,-80.947749,-81.076071
05146,861577,9.117941,1.248504,0.287526,-0.038990,-0.037929,0.081376,0.086142,0.377372,0.780969,87.328920,-80.994470,-81.204803
05147,861677,9.105483,1.222249,0.290217,-0.042731,-0.042760,0.082904,0.084841,0.376905,0.770422,87.445816,-81.042157,-81.352231
05148,861777,9.180365,1.079669,0.444893,-0.046869,-0.037261,0.081294,0.081500,0.375851,0.762347,87.541869,-81.088747,-81.481017
05149,861877,9.341193,0.909191,0.565421,-0.044293,-0.027687,0.070587,0.079668,0.377288,0.753901,87.607012,-81.128955,-81.577115
05150,861977,9.526954,0.802521,0.519254,-0.028749,-0.014634,0.061045,0.077373,0.377833,0.743404,87.635108,-81.163387,-81.626814
05151,862077,9.636970,0.822355,0.480886,-0.011781,-0.005802,0.053304,0.074519,0.375751,0.735779,87.641719,-81.193184,-81.645042
05152,862177,9.654897,0.915202,0.573287,0.001596,-0.004097,0.045490,0.068146,0.381077,0.731033,87.650903,-81.218474,-81.658227
05153,862277,9.590320,1.002901,0.685692,0.004887,-0.002460,0.032436,0.064242,0.379862,0.726457,87.657875,-81.236258,-81.667378
05154,862377,9.444943,1.090683,0.823274,0.001500,-0.003181,0.017767,0.063325,0.382562,0.722586,87.667771,-81.245666,-81.681564
05155,862477,9.280659,1.216980,0.923176,0.007583,-0.006949,-0.001215,0.057873,0.382223,0.721059,87.697975,-81.244295,-81.712878
05156,862577,9.180269,1.284329,0.924130,0.014278,0.005010,-0.017207,0.058971,0.387928,0.716341,87.689895,-81.233493,-81.701673
05157,862677,9.099204,1.235138,0.817333,0.008773,0.018446,-0.030237,0.057976,0.388442,0.716366,87.630820,-81.214919,-81.642152
05158,862777,9.129566,1.105531,0.788255,0.002509,0.028408,-0.040177,0.058924,0.387310,0.718814,87.533128,-81.190403,-81.547287
05159,862877,9.236490,0.923316,0.819411,0.003135,0.043336,-0.040593,0.060883,0.389174,0.720916,87.381372,-81.165242,-81.397468
05160,862977,9.380260,0.818711,0.917382,0.014018,0.057421,-0.040056,0.057321,0.393996,0.725667,87.184836,-81.139941,-81.196163
05161,863077,9.541656,0.754956,0.966160,0.032058,0.066345,-0.035073,0.055313,0.395972,0.726768,86.966064,-81.117123,-80.962045
05162,863177,9.653701,0.698410,0.935961,0.056500,0.064989,-0.030445,0.057707,0.398657,0.732419,86.766375,-81.096869,-80.733225
05163,863277,9.732828,0.655617,0.908219,0.078130,0.050918,-0.026806,0.054780,0.401838,0.729571,86.630451,-81.079064,-80.556564
05164,863377,9.747302,0.548341,0.829676,0.101493,0.034383,-0.017707,0.055793,0.406330,0.729300,86.566588,-81.066986,-80.439470
05165,863477,9.804142,0.531278,0.845479,0.123693,0.033188,-0.009733,0.053886,0.412533,0.725606,86.518183,-81.059502,-80.325325
05166,863577,9.936422,0.565706,0.873089,0.130449,0.056009,-0.000040,0.051404,0.417555,0.725860,86.388598,-81.056733,-80.125264
05167,863677,10.152296,0.823753,0.981643,0.110884,0.096879,0.014707,0.052955,0.423630,0.723666,86.095745,-81.060749,-79.771443
05168,863777,10.405349,1.163295,1.156748,0.064606,0.135212,0.031389,0.048965,0.426161,0.724292,85.632072,-81.072349,-79.271706
05169,863877,10.686764,1.489259,1.359013,0.010414,0.157795,0.040439,0.042971,0.432162,0.726094,85.050996,-81.087349,-78.684717
05170,863977,10.939454,1.832558,1.527796,-0.044338,0.162838,0.045236,0.050345,0.439726,0.732500,84.416437,-81.103841,-78.075493
05171,864077,11.011023,2.097940,1.752490,-0.098019,0.156911,0.040868,0.053138,0.444629,0.743776,83.772076,-81.117121,-77.487620
05172,864177,10.898836,2.167339,2.074005,-0.133906,0.156795,0.022603,0.059909,0.449944,0.755579,83.113655,-81.118959,-76.906479
05173,864277,10.741422,1.979094,2.370007,-0.144145,0.185835,-0.012153,0.067536,0.455379,0.774904,82.360338,-81.097814,-76.235396
05174,864377,10.627304,1.633491,2.386768,-0.135092,0.239688,-0.054145,0.077990,0.463323,0.803380,81.443934,-81.046974,-75.394132
05175,864477,10.652723,1.261711,2.217059,-0.117581,0.294295,-0.085212,0.091521,0.473927,0.827484,80.371620,-80.971336,-74.384954
05176,864577,10.738854,1.020436,1.742389,-0.100552,0.332240,-0.092629,0.106349,0.477549,0.861255,79.198275,-80.884564,-73.263575
05177,864677,10.429300,0.819846,1.126647,-0.094590,0.312246,-0.073708,0.119303,0.485477,0.889231,78.105773,-80.807180,-72.220527
05178,864777,10.119319,0.521158,0.848941,-0.077372,0.244185,-0.036323,0.127671,0.493212,0.922704,77.245291,-80.756219,-71.402512
05179,864877,10.280218,0.246093,0.943426,-0.021218,0.204809,-0.013014,0.132974,0.499307,0.960098,76.541277,-80.721593,-70.710534
05180,864977,10.721646,0.160595,0.741588,0.048820,0.192500,0.002407,0.136994,0.504983,0.985945,75.911143,-80.695932,-70.052886
05181,865077,10.988435,0.427704,0.081880,0.097631,0.150942,0.028257,0.139422,0.512908,1.017416,75.430083,-80.689488,-69.518024
05182,865177,10.999306,0.776059,-0.523797,0.119311,0.050429,0.061488,0.136059,0.521411,1.038890,75.272088,-80.715550,-69.297939
05183,865277,10.990035,0.926404,-0.591487,0.150371,-0.071017,0.089596,0.129767,0.532098,1.057465,75.519331,-80.774780,-69.470395
05184,865377,11.203579,1.010983,-0.201610,0.190095,-0.148720,0.096407,0.126477,0.540295,1.074915,76.053942,-80.848553,-69.910864
05185,865477,11.319383,1.258939,0.164284,0.198092,-0.162518,0.080301,0.121355,0.543974,1.083113,76.662461,-80.914536,-70.421470
05186,865577,11.163625,1.713234,0.154419,0.172314,-0.148325,0.047545,0.117861,0.555915,1.085222,77.240481,-80.959572,-70.916029
05187,865677,10.985160,2.138792,-0.109810,0.142734,-0.127604,0.016804,0.114280,0.565646,1.091726,77.757221,-80.984105,-71.365536
05188,865777,10.723977,2.505054,-0.232241,0.122825,-0.100646,-0.002857,0.121287,0.579011,1.091914,78.184274,-80.993821,-71.735593
05189,865877,10.377426,2.699527,-0.256119,0.101420,-0.071217,-0.014923,0.122212,0.591210,1.097548,78.504341,-80.992979,-72.009544
05190,865977,9.997095,2.621263,-0.217616,0.053605,-0.044358,-0.018565,0.128235,0.601152,1.096558,78.704419,-80.986850,-72.189560
05191,866077,9.735892,2.320588,-0.218818,-0.030911,-0.022985,-0.011932,0.134030,0.612983,1.108191,78.775575,-80.981986,-72.287917
05192,866177,9.458634,1.975338,-0.359859,-0.125070,-0.000072,0.003284,0.142861,0.620427,1.116597,78.700976,-80.983104,-72.293179
05193,866277,8.971065,1.654905,-0.696029,-0.197172,-0.000267,0.028203,0.152670,0.627808,1.126003,78.568089,-80.998242,-72.281105
05194,866377,8.484667,1.444769,-1.050949,-0.262458,-0.025735,0.052480,0.157945,0.632647,1.137780,78.470593,-81.029911,-72.342563
05195,866477,8.098478,1.267206,-1.280774,-0.333637,-0.038429,0.074737,0.167419,0.637978,1.138062,78.361305,-81.075554,-72.433178
05196,866577,7.940376,1.162790,-1.395889,-0.403276,-0.034062,0.092120,0.177511,0.637658,1.131042,78.183417,-81.130479,-72.494544
05197,866677,8.006515,1.386380,-1.548698,-0.452473,-0.037646,0.105020,0.182818,0.633464,1.112797,77.979789,-81.193091,-72.558151
05198,866777,8.386995,1.868073,-1.655545,-0.462996,-0.047625,0.107454,0.190105,0.627221,1.094950,77.803707,-81.258295,-72.655434
05199,866877,8.946587,2.434702,-1.647465,-0.427749,-0.060445,0.100269,0.187123,0.619159,1.066478,77.700201,-81.321062,-72.805350
05200,866977,9.416645,2.953958,-1.641177,-0.361693,-0.073972,0.081829,0.184131,0.605118,1.037700,77.699906,-81.375167,-73.020967
05201,867077,9.839951,3.120066,-1.558114,-0.294098,-0.092439,0.052230,0.171966,0.590191,1.019890,77.832186,-81.414891,-73.331080
05202,867177,10.285370,2.993732,-1.295397,-0.246101,-0.104367,0.015923,0.159681,0.570491,1.007849,78.067194,-81.435540,-73.716899
05203,867277,10.631171,2.592305,-0.792438,-0.223608,-0.087688,-0.021774,0.139788,0.546586,1.002599,78.283439,-81.432858,-74.070460
05204,867377,10.794699,2.140977,-0.408425,-0.218257,-0.051224,-0.052078,0.119757,0.528774,1.005677,78.389875,-81.408799,-74.309735
05205,867477,10.722669,1.703224,-0.171179,-0.216670,-0.024248,-0.070967,0.090761,0.506643,1.008024,78.410627,-81.370992,-74.461376
05206,867577,10.617035,1.340456,0.088220,-0.205137,0.016909,-0.067605,0.072160,0.489136,1.014626,78.283190,-81.330334,-74.456450
05207,867677,10.442687,1.137863,0.126406,-0.192131,0.077421,-0.051309,0.047523,0.475542,1.024928,77.929789,-81.291666,-74.215417
05208,867777,10.152941,1.050458,0.020716,-0.177920,0.113185,-0.030179,0.023522,0.466262,1.028436,77.440109,-81.260190,-73.828260
05209,867877,9.894873,1.063977,-0.022121,-0.162323,0.111902,-0.006999,0.003034,0.456003,1.030396,76.947820,-81.241326,-73.429398
05210,867977,9.666890,1.225768,0.053054,-0.147400,0.089200,0.013327,-0.008433,0.450206,1.030087,76.530458,-81.236297,-73.097670
05211,868077,9.410863,1.440174,0.127720,-0.143570,0.065793,0.023794,-0.019303,0.448129,1.024959,76.190948,-81.239921,-72.842458
05212,868177,9.118357,1.535426,0.170667,-0.141590,0.045199,0.026299,-0.026607,0.448681,1.015960,75.924413,-81.247571,-72.659891
05213,868277,8.887425,1.578059,0.180424,-0.128011,0.036561,0.023402,-0.025509,0.448432,1.010437,75.699133,-81.254700,-72.511146
05214,868377,8.786094,1.547227,0.158325,-0.105818,0.032434,0.020147,-0.023871,0.456219,1.003821,75.504223,-81.260523,-72.380210
05215,868477,8.800803,1.449459,0.153960,-0.084480,0.038664,0.020218,-0.022768,0.458959,0.998451,75.298807,-81.265414,-72.226235
05216,868577,8.850762,1.407631,0.208319,-0.068281,0.046804,0.024229,-0.018694,0.462102,0.994106,75.069290,-81.271241,-72.038456
05217,868677,8.920116,1.375194,0.245997,-0.062676,0.047982,0.032055,-0.016126,0.469207,0.990964,74.830840,-81.281104,-71.838370
05218,868777,9.088479,1.430866,0.367049,-0.056691,0.040459,0.040029,-0.012019,0.469954,0.984493,74.614554,-81.296386,-71.657227
05219,868877,9.221206,1.497530,0.444070,-0.045545,0.030302,0.045283,-0.007435,0.474608,0.979725,74.435368,-81.316024,-71.507146
05220,868977,9.201620,1.604539,0.500295,-0.032640,0.019908,0.045262,-0.009884,0.477235,0.977852,74.300480,-81.337187,-71.394383
05221,869077,9.135587,1.664782,0.537292,-0.020124,0.021850,0.037170,-0.007775,0.479984,0.971982,74.173433,-81.353542,-71.282275
05222,869177,8.963112,1.643679,0.496646,-0.009900,0.027499,0.023321,-0.003635,0.483793,0.964164,74.045659,-81.361336,-71.163478
05223,869277,8.776752,1.642964,0.369007,0.000059,0.026244,0.010657,-0.003632,0.485786,0.964266,73.941162,-81.362312,-71.062408
05224,869377,8.676048,1.622849,0.339775,0.013632,0.018606,-0.001787,-0.001065,0.486936,0.960319,73.885150,-81.357624,-71.002462
05225,869477,8.653274,1.586089,0.336727,0.029476,0.001186,-0.011477,-0.004501,0.489603,0.957946,73.911477,-81.350364,-71.016572
05226,869577,8.715817,1.568656,0.463383,0.040875,-0.015113,-0.013261,-0.002476,0.487177,0.955821,74.005119,-81.344696,-71.092138
05227,869677,8.811671,1.587231,0.589050,0.044755,-0.011934,-0.012596,-0.003969,0.487699,0.955845,74.088689,-81.338874,-71.155249
05228,869777,8.917796,1.590628,0.628424,0.050536,-0.003807,-0.008340,-0.004047,0.485513,0.959742,74.141709,-81.334109,-71.184098
05229,869877,9.051635,1.578519,0.660690,0.058919,0.005968,-0.002488,-0.010092,0.483944,0.963163,74.158140,-81.331033,-71.171073
05230,869977,9.160143,1.566692,0.705180,0.079684,0.008486,0.001532,-0.011531,0.483614,0.960138,74.173230,-81.329777,-71.144658
05231,870077,9.185886,1.592632,0.767965,0.111626,0.005473,0.000350,-0.013608,0.483429,0.964636,74.218705,-81.328337,-71.130475
05232,870177,9.138577,1.600946,0.829158,0.146270,0.000781,-0.005642,-0.012481,0.483751,0.957639,74.307067,-81.324321,-71.139607
05233,870277,9.062404,1.650496,0.854138,0.167541,-0.005737,-0.015929,-0.014848,0.485598,0.951216,74.441495,-81.315628,-71.183020
05234,870377,9.005859,1.619781,0.874447,0.168908,-0.017718,-0.028472,-0.007272,0.486741,0.945772,74.632286,-81.301817,-71.282673
05235,870477,9.051338,1.600512,0.867686,0.158668,-0.024181,-0.029848,-0.006534,0.486363,0.932726,74.841403,-81.288164,-71.406824
05236,870577,9.149304,1.591510,0.852851,0.142519,-0.022689,-0.021619,0.001657,0.490278,0.921411,75.027398,-81.278776,-71.516968
05237,870677,9.277572,1.652775,0.883418,0.124859,-0.012599,-0.002953,0.006240,0.489475,0.915864,75.148665,-81.278187,-71.571884
05238,870777,9.399957,1.653908,0.952897,0.105120,0.003100,0.018427,0.009425,0.490432,0.905394,75.181446,-81.287121,-71.548748
05239,870877,9.464982,1.636838,1.017787,0.090700,0.019016,0.034715,0.014544,0.489717,0.897848,75.132694,-81.302735,-71.451527
05240,870977,9.439770,1.607774,1.057093,0.078929,0.032621,0.045615,0.018540,0.490675,0.897400,75.016980,-81.322349,-71.293439
05241,871077,9.345821,1.564174,1.036328,0.078998,0.035549,0.044490,0.014624,0.492401,0.893976,74.891105,-81.340850,-71.125085
05242,871177,9.322933,1.476411,1.061535,0.086377,0.041945,0.038633,0.017641,0.492924,0.892503,74.751330,-81.355088,-70.938461
05243,871277,9.311773,1.367774,1.086212,0.104650,0.062498,0.034921,0.015701,0.491107,0.889403,74.550413,-81.364070,-70.679480
05244,871377,9.241789,1.356605,1.083111,0.129047,0.086265,0.036056,0.017294,0.494314,0.884557,74.275410,-81.369853,-70.331500
05245,871477,9.211329,1.326517,1.077955,0.153402,0.099082,0.036862,0.011386,0.492110,0.880430,73.966540,-81.373799,-69.935230
05246,871577,9.235103,1.325059,1.093379,0.167047,0.102911,0.041686,0.008948,0.490301,0.877329,73.646104,-81.379454,-69.519431
05247,871677,9.262621,1.389525,1.149935,0.171370,0.088789,0.047554,0.000679,0.487478,0.866153,73.372409,-81.390299,-69.148482
05248,871777,9.326090,1.496060,1.208276,0.168237,0.070087,0.054334,-0.004805,0.485074,0.866024,73.156392,-81.407704,-68.837763
05249,871877,9.367608,1.607095,1.262542,0.155004,0.060123,0.062643,-0.011739,0.481319,0.863319,72.958570,-81.431151,-68.553190
05250,871977,9.378680,1.695833,1.308230,0.138175,0.072744,0.071036,-0.019196,0.474535,0.861462,72.694235,-81.456875,-68.211178
05251,872077,9.359831,1.684632,1.356304,0.135215,0.096201,0.081550,-0.023203,0.472059,0.862334,72.328585,-81.484015,-67.768517
05252,872177,9.390364,1.594098,1.446708,0.142614,0.108202,0.094646,-0.027182,0.470651,0.861756,71.905113,-81.515720,-67.263217
05253,872277,9.537065,1.478620,1.554859,0.160571,0.114189,0.105210,-0.026134,0.468289,0.858631,71.453536,-81.551510,-66.719248
05254,872377,9.837716,1.294259,1.781418,0.175334,0.128832,0.119459,-0.028195,0.466159,0.862027,70.934448,-81.591633,-66.098684
05255,872477,10.250398,1.163356,1.845140,0.185310,0.157866,0.136103,-0.025123,0.466328,0.857530,70.287221,-81.634291,-65.343055
05256,872577,10.767910,1.243553,1.734273,0.204711,0.197947,0.152343,-0.019198,0.468082,0.860632,69.474659,-81.676366,-64.409324
05257,872677,11.185422,1.560461,1.575064,0.218259,0.237171,0.166160,-0.013811,0.473211,0.866411,68.497590,-81.715632,-63.301698
05258,872777,11.412804,1.952265,1.410713,0.204101,0.248761,0.173230,-0.005508,0.479095,0.876240,67.449735,-81.753308,-62.130882
05259,872877,11.627862,2.171267,1.398241,0.145149,0.251787,0.158289,0.001630,0.484065,0.895040,66.371061,-81.779272,-60.963161
05260,872977,12.058835,2.243440,1.330412,0.061744,0.269526,0.127879,0.013597,0.492531,0.922542,65.224544,-81.781898,-59.775209
05261,873077,12.505425,2.517320,0.955420,-0.012034,0.280111,0.087443,0.019068,0.499059,0.950939,64.067940,-81.757549,-58.619660
05262,873177,12.757210,2.860862,0.451642,-0.046657,0.265836,0.046516,0.022249,0.510803,0.996134,63.022237,-81.712650,-57.595943
05263,873277,12.728025,3.062343,0.087673,-0.045233,0.224200,0.008905,0.021434,0.511673,1.040269,62.201616,-81.657179,-56.798494
05264,873377,12.374339,3.014750,-0.192246,-0.039741,0.155299,-0.031359,0.013442,0.512124,1.095398,61.704624,-81.598573,-56.324586
05265,873477,11.982909,2.654177,-0.358291,-0.061845,0.064982,-0.063890,-0.001431,0.513424,1.145552,61.567573,-81.547761,-56.227020
05266,873577,11.671108,2.135755,-0.507875,-0.103954,-0.039649,-0.079979,-0.019806,0.505812,1.195248,61.790636,-81.517288,-56.517695
05267,873677,11.399011,1.640634,-0.445043,-0.158121,-0.138878,-0.075742,-0.042976,0.493304,1.234166,62.309967,-81.515342,-57.139144
05268,873777,10.977889,1.274600,-0.287916,-0.199968,-0.223975,-0.059111,-0.068076,0.479502,1.269510,63.067699,-81.543229,-58.025738
05269,873877,10.380592,1.086105,-0.120459,-0.215491,-0.286139,-0.038371,-0.092022,0.460637,1.295577,64.002898,-81.595714,-59.100573
05270,873977,9.719723,0.940793,-0.043970,-0.197174,-0.328494,-0.021245,-0.112314,0.447606,1.313429,65.082804,-81.664731,-60.310853
05271,874077,9.089479,0.854854,0.041601,-0.132700,-0.348671,-0.014744,-0.128002,0.428863,1.323979,66.280969,-81.738408,-61.603067
05272,874177,8.429046,0.775636,0.051856,-0.032143,-0.331926,-0.024142,-0.129672,0.414052,1.331239,67.511450,-81.799417,-62.869484
05273,874277,7.863177,0.714415,-0.122706,0.108381,-0.287254,-0.042049,-0.130157,0.405164,1.329282,68.700253,-81.837538,-64.012263
05274,874377,7.418811,0.634216,-0.362452,0.246044,-0.202877,-0.056945,-0.115066,0.399358,1.320485,69.682065,-81.847435,-64.866136
05275,874477,7.171919,0.514535,-0.687523,0.353820,-0.076904,-0.061508,-0.100400,0.393254,1.307664,70.259533,-81.828521,-65.249078
05276,874577,7.288646,0.500382,-1.165403,0.426876,0.059713,-0.055899,-0.083019,0.392647,1.283603,70.357364,-81.785950,-65.105051
05277,874677,7.826802,0.587717,-1.546377,0.458957,0.154566,-0.039308,-0.067423,0.384179,1.247113,70.099627,-81.733921,-64.582977
05278,874777,8.482716,0.687668,-1.797323,0.442579,0.205818,-0.016530,-0.053656,0.384100,1.203033,69.618233,-81.683560,-63.844086
05279,874877,9.214022,0.969348,-1.892969,0.386336,0.191323,0.014421,-0.047322,0.379776,1.156223,69.121848,-81.651820,-63.122284
05280,874977,10.065555,1.367816,-1.760733,0.288010,0.125942,0.044824,-0.049891,0.374766,1.105860,68.768009,-81.649026,-62.601191
05281,875077,10.941512,1.726848,-1.388352,0.164527,0.049469,0.064412,-0.057425,0.363430,1.053666,68.593665,-81.672271,-62.332772
05282,875177,11.559231,2.077391,-0.958973,0.043685,-0.007400,0.064822,-0.069145,0.358579,1.013323,68.556062,-81.707565,-62.272295
05283,875277,11.758944,2.293234,-0.703873,-0.051684,-0.032514,0.035654,-0.090421,0.349676,0.977271,68.597726,-81.732556,-62.346910
05284,875377,11.658197,2.419571,-0.665085,-0.094967,-0.041660,-0.006816,-0.102461,0.342511,0.953844,68.709662,-81.736773,-62.517351
05285,875477,11.182408,2.426584,-0.655226,-0.102430,-0.051165,-0.046266,-0.122614,0.338077,0.938564,68.908568,-81.721815,-62.779754
05286,875577,10.478089,2.218705,-0.468986,-0.085000,-0.077450,-0.080737,-0.139915,0.334729,0.930859,69.261301,-81.693601,-63.187327
05287,875677,9.940798,1.800564,-0.112396,-0.055588,-0.095902,-0.104139,-0.156771,0.328264,0.925499,69.727724,-81.656111,-63.692685
05288,875777,9.533152,1.344255,0.144098,-0.021474,-0.106843,-0.113572,-0.170238,0.318512,0.924987,70.261745,-81.615053,-64.246619
05289,875877,9.200145,0.969983,0.173044,0.019047,-0.113975,-0.109392,-0.181263,0.312563,0.927678,70.834354,-81.576844,-64.816146
05290,875977,8.945239,0.785577,0.139648,0.059551,-0.126182,-0.097656,-0.181684,0.303844,0.922222,71.455116,-81.546403,-65.410958
05291,876077,8.756382,0.717576,0.119345,0.088993,-0.133525,-0.072708,-0.184211,0.293871,0.922713,72.085637,-81.529912,-65.998638
05292,876177,8.704366,0.745985,0.149895,0.099271,-0.119792,-0.043511,-0.184648,0.286598,0.918334,72.635805,-81.526098,-66.499161
05293,876277,8.775934,0.856332,0.203834,0.091799,-0.094335,-0.015318,-0.180097,0.277277,0.913354,73.055971,-81.532798,-66.872593
05294,876377,8.880674,0.959915,0.232509,0.066210,-0.049677,0.012487,-0.178064,0.268920,0.909924,73.266505,-81.547037,-67.048913
05295,876477,9.021941,1.024167,0.254287,0.036266,-0.004432,0.037918,-0.174578,0.257952,0.908366,73.264900,-81.567722,-67.028117
05296,876577,9.117912,1.058880,0.204758,0.008280,0.032029,0.056470,-0.170512,0.251154,0.903014,73.091123,-81.592534,-66.849484
05297,876677,9.233424,1.056281,0.118367,-0.016869,0.044900,0.065182,-0.162536,0.244101,0.901661,72.844081,-81.619865,-66.611361
05298,876777,9.226792,1.065161,-0.014051,-0.038649,0.031648,0.067455,-0.164540,0.237655,0.901330,72.629694,-81.650556,-66.418847
05299,876877,9.161233,1.031166,-0.015560,-0.051555,-0.002242,0.068024,-0.161000,0.231292,0.897503,72.532436,-81.687298,-66.352177
05300,876977,9.029638,0.885983,-0.024142,-0.049495,-0.042542,0.058696,-0.159925,0.228503,0.892852,72.598117,-81.725863,-66.448968
05301,877077,8.981317,0.887752,0.008725,-0.039264,-0.052092,0.048925,-0.158414,0.222075,0.891023,72.718027,-81.760697,-66.594615
05302,877177,8.839485,0.926055,0.008508,-0.030745,-0.039314,0.036216,-0.156830,0.220299,0.885924,72.810380,-81.786373,-66.707460
05303,877277,8.804349,0.988505,0.030589,-0.028302,-0.042720,0.027170,-0.159236,0.215597,0.880671,72.928328,-81.807645,-66.844725
05304,877377,8.911625,0.943344,0.133064,-0.034310,-0.047056,0.024393,-0.156571,0.214520,0.871099,73.063282,-81.828084,-67.002640
05305,877477,9.019260,0.985258,0.333252,-0.044145,-0.057771,0.021121,-0.155890,0.208043,0.860248,73.238132,-81.848450,-67.206563
05306,877577,9.132460,0.999321,0.502298,-0.043980,-0.092970,0.019346,-0.150277,0.210286,0.853354,73.551397,-81.873485,-67.550241
05307,877677,9.265856,0.957439,0.577391,-0.042053,-0.117818,0.022760,-0.146627,0.208173,0.844232,73.960088,-81.904079,-67.989223
05308,877777,9.348888,0.847856,0.510058,-0.050385,-0.122323,0.028655,-0.139492,0.205009,0.835060,74.378287,-81.938184,-68.442651
05309,877877,9.365010,0.674391,0.472706,-0.055663,-0.120247,0.038672,-0.137428,0.203675,0.830985,74.778292,-81.977057,-68.880788
05310,877977,9.359663,0.623005,0.457568,-0.045628,-0.114970,0.042733,-0.136340,0.202903,0.825937,75.163001,-82.016982,-69.297702
05311,878077,9.342078,0.646589,0.446585,-0.026563,-0.118527,0.043813,-0.130746,0.199642,0.819263,75.575676,-82.057623,-69.731850
05312,878177,9.324739,0.751844,0.452871,-0.008624,-0.126217,0.038374,-0.125661,0.200824,0.813818,76.039170,-82.095871,-70.206944
05313,878277,9.321603,0.875308,0.529818,-0.000806,-0.126980,0.030868,-0.124094,0.199498,0.809744,76.521981,-82.129507,-70.697027
05314,878377,9.467392,0.904437,0.539354,0.008088,-0.118903,0.019302,-0.120422,0.199427,0.799723,76.992083,-82.155078,-71.169153
05315,878477,9.625668,0.867025,0.457378,0.020116,-0.116044,0.016859,-0.119351,0.199604,0.795725,77.462680,-82.178398,-71.634839
05316,878577,9.748078,0.788813,0.413713,0.037395,-0.122743,0.015312,-0.113197,0.199966,0.786231,77.974696,-82.201130,-72.132363
05317,878677,9.799331,0.734273,0.421245,0.052634,-0.135560,0.017052,-0.116034,0.201894,0.778309,78.549592,-82.225698,-72.684565
05318,878777,9.876064,0.703671,0.387383,0.059857,-0.145891,0.014649,-0.114937,0.201146,0.772761,79.176741,-82.249282,-73.285351
05319,878877,9.915648,0.759193,0.422086,0.046137,-0.158730,0.013725,-0.115838,0.202898,0.767838,79.853715,-82.272768,-73.944374
05320,878977,9.923283,0.902040,0.482877,0.023750,-0.158546,0.011589,-0.120728,0.202221,0.762788,80.522519,-82.293993,-74.608106
05321,879077,9.794609,1.054912,0.500842,-0.004354,-0.150251,0.011233,-0.124648,0.201955,0.759263,81.144202,-82.313260,-75.240537
05322,879177,9.625684,1.158722,0.503683,-0.021562,-0.143901,0.005635,-0.127540,0.204236,0.754365,81.735744,-82.327920,-75.852496
05323,879277,9.486311,1.147522,0.378895,-0.018990,-0.152458,-0.002178,-0.127958,0.202468,0.749765,82.371542,-82.337951,-76.507612
05324,879377,9.381797,1.001162,0.308273,-0.002952,-0.168227,-0.009381,-0.130317,0.203342,0.742793,83.088590,-82.344005,-77.235435
05325,879477,9.343024,0.736978,0.246253,0.030883,-0.174620,-0.018602,-0.130649,0.203285,0.733771,83.857374,-82.343977,-77.995922
05326,879577,9.405083,0.502725,0.190224,0.069389,-0.166493,-0.029012,-0.133410,0.201444,0.721148,84.617770,-82.336205,-78.725739
05327,879677,9.578256,0.452667,0.337956,0.098647,-0.152956,-0.032431,-0.136222,0.201451,0.711625,85.337090,-82.324560,-79.397280
05328,879777,9.910266,0.636201,0.669903,0.103048,-0.110805,-0.039399,-0.141500,0.205531,0.701305,85.880394,-82.306106,-79.888781
05329,879877,10.263230,0.946624,0.885371,0.084425,-0.059184,-0.043826,-0.141886,0.205828,0.695307,86.193833,-82.282594,-80.159205
05330,879977,10.526452,1.232885,0.995211,0.042641,-0.040790,-0.044063,-0.144253,0.207675,0.688886,86.404229,-82.258101,-80.349892
05331,880077,10.815630,1.504753,1.147298,0.002837,-0.026208,-0.048047,-0.143161,0.209395,0.683964,86.530402,-82.230740,-80.478677
05332,880177,10.929091,1.679173,1.211988,-0.033363,0.005667,-0.058283,-0.143762,0.214096,0.690216,86.504387,-82.196397,-80.474862
05333,880277,10.855922,1.753722,1.176479,-0.056561,0.041438,-0.080752,-0.142811,0.214956,0.692766,86.322584,-82.147919,-80.327257
05334,880377,10.621865,1.784169,1.072624,-0.057189,0.066993,-0.109543,-0.137083,0.215208,0.706313,86.045317,-82.081920,-80.083648
05335,880477,10.365349,1.684912,0.981504,-0.047782,0.081724,-0.142541,-0.132905,0.215338,0.722859,85.727711,-81.996279,-79.793846
05336,880577,10.152779,1.451748,0.953471,-0.047808,0.090148,-0.166119,-0.126165,0.219584,0.736110,85.390282,-81.896564,-79.484011
05337,880677,10.058721,1.112471,0.966609,-0.063925,0.082090,-0.179093,-0.124617,0.219891,0.760177,85.087852,-81.789584,-79.218850
05338,880777,10.123386,0.790432,0.855668,-0.082808,0.078044,-0.174474,-0.114496,0.221325,0.778800,84.796133,-81.685253,-78.975456
05339,880877,10.396897,0.577167,0.604551,-0.094209,0.083779,-0.158108,-0.109490,0.221006,0.804343,84.476393,-81.589772,-78.710358
05340,880977,10.671327,0.545932,0.187799,-0.093109,0.086260,-0.130095,-0.106364,0.221008,0.823887,84.143524,-81.509908,-78.431327
05341,881077,10.662934,0.696647,-0.285514,-0.083499,0.045741,-0.088532,-0.108772,0.221949,0.846479,83.958558,-81.455957,-78.296206
05342,881177,10.659339,0.818352,-0.529634,-0.068804,-0.019452,-0.061526,-0.105158,0.227375,0.867303,84.019177,-81.421291,-78.400846
05343,881277,10.861512,0.857404,-0.510267,-0.028221,-0.073403,-0.053612,-0.110910,0.230227,0.882473,84.302523,-81.394240,-78.707176
05344,881377,11.175098,1.016988,-0.526815,0.023065,-0.107437,-0.058183,-0.112191,0.236946,0.898848,84.742914,-81.366163,-79.142580
05345,881477,11.217000,1.275846,-0.454579,0.068551,-0.139266,-0.075154,-0.120349,0.240552,0.909544,85.331055,-81.329397,-79.701032
05346,881577,11.116122,1.578483,-0.245071,0.109772,-0.159255,-0.099450,-0.122482,0.250637,0.918574,86.018881,-81.278686,-80.336419
05347,881677,10.990125,1.759720,-0.064143,0.138165,-0.151194,-0.127515,-0.132586,0.254396,0.926771,86.691456,-81.210498,-80.939945
05348,881777,10.765830,1.920384,0.022868,0.129381,-0.130271,-0.146585,-0.136184,0.265075,0.934326,87.275727,-81.129765,-81.459244
05349,881877,10.280268,2.069982,0.003045,0.069097,-0.125390,-0.155360,-0.133737,0.271866,0.937681,87.799183,-81.043120,-81.951974
05350,881977,9.727997,2.141512,-0.042984,-0.016612,-0.130171,-0.152747,-0.130371,0.276456,0.944933,88.280998,-80.957396,-82.452277
05351,882077,9.261994,2.136493,-0.055789,-0.101908,-0.121115,-0.139711,-0.122409,0.282260,0.946240,88.671653,-80.878402,-82.909761
05352,882177,8.761401,2.059929,-0.146376,-0.162945,-0.081210,-0.120515,-0.116951,0.291045,0.948699,88.877842,-80.809536,-83.215806
05353,882277,8.318886,1.909578,-0.343553,-0.214779,-0.034123,-0.095444,-0.106998,0.296319,0.949981,88.883605,-80.754409,-83.348825
05354,882377,7.882729,1.714754,-0.646109,-0.266306,-0.008558,-0.065376,-0.095537,0.298131,0.950086,88.767628,-80.716222,-83.388291
05355,882477,7.656638,1.651872,-0.851030,-0.332078,-0.007300,-0.032629,-0.082930,0.301806,0.942271,88.607456,-80.696786,-83.421014
05356,882577,7.610140,1.671816,-0.984775,-0.385986,-0.015300,-0.002632,-0.071755,0.303183,0.930830,88.442045,-80.694659,-83.479568
05357,882677,7.832283,1.812776,-1.004461,-0.394646,0.011971,0.014473,-0.058480,0.302823,0.913289,88.174692,-80.701897,-83.439685
05358,882777,8.110297,2.148349,-1.208437,-0.365600,0.058861,0.017305,-0.048204,0.306948,0.896977,87.759367,-80.709755,-83.232795
05359,882877,8.269622,2.483462,-1.522430,-0.320084,0.077144,0.005525,-0.042217,0.305694,0.869362,87.307577,-80.710155,-82.962282
05360,882977,8.463057,2.705270,-1.695293,-0.266901,0.044890,-0.009953,-0.042275,0.307830,0.845922,87.001955,-80.702315,-82.808727
05361,883077,8.805063,2.790251,-1.553721,-0.200289,0.003451,-0.037656,-0.038763,0.300211,0.816477,86.884844,-80.679787,-82.807260
05362,883177,9.337273,2.760793,-1.300381,-0.134319,-0.027754,-0.076166,-0.045322,0.298915,0.793857,86.921497,-80.636183,-82.923094
05363,883277,9.907589,2.569657,-0.990037,-0.069765,-0.030288,-0.113932,-0.051413,0.291085,0.771906,87.009931,-80.571020,-83.053775
05364,883377,10.470870,2.359164,-0.704861,-0.013013,-0.011238,-0.145747,-0.062653,0.287859,0.759704,87.069697,-80.487056,-83.122337
05365,883477,10.847725,2.173692,-0.502457,0.028555,0.017099,-0.162188,-0.077420,0.283097,0.749424,87.059052,-80.392846,-83.095284
05366,883577,10.986947,2.054542,-0.527814,0.054293,0.017994,-0.168803,-0.084892,0.283216,0.749421,87.061630,-80.294823,-83.066611
05367,883677,10.975273,1.965364,-0.535286,0.060545,-0.011355,-0.159822,-0.102328,0.282496,0.749365,87.163801,-80.202790,-83.135291
05368,883777,10.778947,1.775045,-0.489512,0.054591,-0.043057,-0.144259,-0.115389,0.283409,0.755409,87.362748,-80.120502,-83.305629
05369,883877,10.488206,1.544368,-0.423836,0.034660,-0.071841,-0.132085,-0.126309,0.284676,0.753458,87.639488,-80.045783,-83.566556
05370,883977,10.164254,1.253266,-0.263059,0.006687,-0.101321,-0.115588,-0.140319,0.286223,0.757028,87.989858,-79.980913,-83.918586
05371,884077,9.821355,1.068456,-0.132498,-0.020444,-0.143185,-0.091387,-0.148176,0.287137,0.751054,88.452967,-79.930220,-84.400992
05372,884177,9.518847,1.120200,0.052165,-0.037794,-0.189056,-0.071027,-0.153032,0.294978,0.745435,89.047562,-79.890992,-85.027156
05373,884277,9.370315,1.342193,0.244976,-0.045536,-0.220222,-0.058298,-0.155344,0.296472,0.735989,89.732523,-79.858027,-85.749735
05374,884377,9.373759,1.552071,0.265465,-0.043654,-0.214425,-0.048480,-0.151775,0.306051,0.732974,90.395620,-79.829200,-86.449104
05375,884477,9.331765,1.743281,0.125725,-0.040392,-0.186115,-0.043232,-0.144016,0.316596,0.718990,90.966797,-79.802245,-87.053251
05376,884577,9.235791,1.967645,-0.149067,-0.035109,-0.152835,-0.046567,-0.132456,0.327592,0.715055,91.431908,-79.772812,-87.546573
05377,884677,9.196035,2.115998,-0.330710,-0.030746,-0.125789,-0.057436,-0.123220,0.338064,0.702071,91.810064,-79.736946,-87.948987
05378,884777,9.208246,2.185715,-0.412748,-0.031327,-0.126598,-0.068926,-0.111608,0.352668,0.695814,92.186333,-79.694010,-88.349811
05379,884877,9.198571,2.165792,-0.437142,-0.041517,-0.144442,-0.080659,-0.099918,0.363503,0.684855,92.607799,-79.643429,-88.802512
05380,884977,9.138102,2.120895,-0.452976,-0.046630,-0.166396,-0.085135,-0.089148,0.376041,0.669974,93.089728,-79.589018,-89.319681
05381,885077,9.123893,2.067188,-0.431283,-0.040956,-0.187765,-0.088182,-0.082483,0.383371,0.660836,93.635237,-79.531311,-89.898241
05382,885177,9.216072,2.038114,-0.374055,-0.018472,-0.199893,-0.091318,-0.078196,0.391528,0.645724,94.223984,-79.470296,-90.507744
05383,885277,9.317765,2.083498,-0.277440,0.006538,-0.195638,-0.092800,-0.074048,0.394864,0.637381,94.806699,-79.407492,-91.096631
05384,885377,9.416776,2.195234,-0.160165,0.027727,-0.174588,-0.091116,-0.070367,0.399276,0.627589,95.331218,-79.345671,-91.614051
05385,885477,9.407275,2.312341,0.022559,0.034335,-0.145419,-0.087005,-0.070304,0.398448,0.624040,95.766850,-79.287010,-92.037251
05386,885577,9.372337,2.374147,0.113321,0.037871,-0.107785,-0.086112,-0.068820,0.397902,0.624515,96.087379,-79.230565,-92.341306
05387,885677,9.348394,2.379160,0.134481,0.035495,-0.073074,-0.080288,-0.068841,0.396359,0.625438,96.301812,-79.179315,-92.538785
05388,885777,9.293844,2.358072,0.059014,0.034078,-0.049852,-0.072986,-0.070514,0.394929,0.634883,96.447084,-79.133582,-92.666695
05389,885877,9.298054,2.251746,0.015929,0.025912,-0.037270,-0.061408,-0.066161,0.389562,0.641128,96.553306,-79.095200,-92.759614
05390,885977,9.297102,2.132278,0.074708,0.008937,-0.025775,-0.045165,-0.064984,0.388222,0.658096,96.620820,-79.066791,-92.823034
05391,886077,9.384768,2.040070,0.122441,-0.005590,-0.008930,-0.027509,-0.062180,0.383731,0.667390,96.636210,-79.049534,-92.841862
05392,886177,9.511763,2.001977,0.043501,-0.014949,0.001529,-0.010092,-0.060011,0.379883,0.684232,96.621400,-79.042882,-92.835409
05393,886277,9.576756,1.995898,-0.055220,-0.019168,-0.007896,0.009174,-0.063717,0.376395,0.695574,96.638463,-79.046571,-92.863888
05394,886377,9.618383,2.005037,0.000378,-0.024587,-0.021183,0.033160,-0.062612,0.371398,0.715863,96.699808,-79.063022,-92.940643
05395,886477,9.584056,2.092223,0.136606,-0.032244,-0.031960,0.054665,-0.062306,0.367421,0.725682,96.796300,-79.090962,-93.057673
05396,886577,9.493174,2.190925,0.262857,-0.042417,-0.036548,0.069123,-0.061039,0.364328,0.737550,96.906255,-79.126772,-93.194352
05397,886677,9.269505,2.249820,0.299751,-0.051235,-0.039355,0.070863,-0.056302,0.362626,0.750496,97.020918,-79.163324,-93.340968
05398,886777,9.150522,2.194447,0.223629,-0.062881,-0.045367,0.067489,-0.054481,0.360168,0.759391,97.146414,-79.197473,-93.505398
05399,886877,9.131887,1.993428,0.125534,-0.074825,-0.054068,0.066743,-0.045192,0.360059,0.768916,97.291675,-79.230497,-93.696911
05400,886977,9.128534,1.789065,0.030472,-0.087410,-0.062296,0.077355,-0.039366,0.363540,0.777618,97.459567,-79.268848,-93.918792
05401,887077,9.195198,1.610771,0.064321,-0.096420,-0.070817,0.091817,-0.033978,0.364707,0.782694,97.655164,-79.314642,-94.174126
05402,887177,9.345274,1.519501,0.173840,-0.096427,-0.069489,0.110833,-0.026669,0.366647,0.791820,97.856623,-79.371172,-94.435431
05403,887277,9.520072,1.517607,0.248297,-0.081802,-0.047730,0.126183,-0.024703,0.367539,0.793370,98.009391,-79.437986,-94.638675
05404,887377,9.584638,1.654080,0.278609,-0.068631,-0.027808,0.135116,-0.021287,0.368786,0.797446,98.114894,-79.511386,-94.786170
05405,887477,9.544837,1.876383,0.292469,-0.055882,-0.014238,0.135330,-0.018251,0.364399,0.794219,98.187722,-79.585968,-94.893008
05406,887577,9.507115,2.026234,0.374352,-0.054779,0.008588,0.129678,-0.015341,0.367124,0.798871,98.188980,-79.659194,-94.926448
05407,887677,9.366088,2.042985,0.357120,-0.062248,0.005597,0.127209,-0.017864,0.364102,0.800217,98.194418,-79.730774,-94.968501
05408,887777,9.358293,1.964053,0.341955,-0.058814,-0.013966,0.124815,-0.014424,0.358968,0.801964,98.262700,-79.799387,-95.072433
05409,887877,9.439006,1.853668,0.345235,-0.045968,-0.020431,0.129301,-0.013460,0.356389,0.803336,98.362114,-79.869982,-95.200524
05410,887977,9.436716,1.790849,0.340092,-0.031511,-0.020399,0.132452,-0.011009,0.354758,0.805260,98.472812,-79.942323,-95.331669
05411,888077,9.446901,1.735942,0.446202,-0.020744,-0.009718,0.142042,-0.013481,0.349888,0.803506,98.561707,-80.020966,-95.434423
05412,888177,9.547259,1.643170,0.700966,-0.011192,0.019122,0.150120,-0.007992,0.349825,0.803008,98.567925,-80.106633,-95.447725
05413,888277,9.636240,1.558362,0.861533,0.000374,0.051064,0.158306,-0.003470,0.350847,0.801061,98.480231,-80.199656,-95.359064
05414,888377,9.781201,1.431197,0.982722,0.014328,0.076015,0.167435,0.004455,0.346140,0.802834,98.320577,-80.299911,-95.189401
05415,888477,9.878488,1.391763,1.051021,0.026222,0.095070,0.178125,0.006408,0.349973,0.805537,98.105495,-80.407698,-94.956756
05416,888577,9.931122,1.412360,1.194671,0.033250,0.117643,0.182644,0.015292,0.356067,0.810868,97.814746,-80.519670,-94.643486
05417,888677,9.898842,1.505379,1.312898,0.026768,0.156408,0.187473,0.024655,0.361109,0.817148,97.381665,-80.636994,-94.189917
05418,888777,9.857997,1.674523,1.328573,0.009843,0.205385,0.189564,0.034513,0.370104,0.824131,96.757270,-80.758272,-93.552562
05419,888877,10.003766,1.773120,1.309592,-0.021307,0.272918,0.194299,0.050149,0.381962,0.842290,95.860214,-80.885121,-92.657405
05420,888977,10.335729,1.749786,1.153978,-0.047486,0.350900,0.199900,0.065821,0.392422,0.858373,94.643191,-81.016601,-91.453839
05421,889077,10.540001,1.791706,0.730353,-0.047107,0.389735,0.209961,0.081901,0.404625,0.879556,93.250582,-81.151018,-90.072806
05422,889177,10.234832,1.931484,0.246704,-0.021461,0.316524,0.220344,0.098910,0.420607,0.904940,92.105601,-81.284637,-88.927968
05423,889277,9.761741,1.894037,0.018977,-0.011201,0.167436,0.217793,0.110451,0.432738,0.929121,91.496705,-81.411411,-88.319812
05424,889377,9.835488,1.609265,0.126013,-0.028524,0.066046,0.197720,0.122612,0.450630,0.947583,91.248263,-81.524604,-88.086369
05425,889477,10.329685,1.539735,0.122349,-0.047706,0.052031,0.179529,0.134151,0.456806,0.970959,91.035554,-81.627076,-87.900231
05426,889577,10.554475,1.810846,-0.255992,-0.057291,0.045445,0.179255,0.146258,0.465135,0.990938,90.838338,-81.729230,-87.735312
05427,889677,10.551069,2.178857,-0.620167,-0.056514,0.008886,0.184963,0.150939,0.473704,1.008415,90.783288,-81.834300,-87.713546
05428,889777,10.470262,2.418353,-0.684300,-0.059211,-0.043612,0.185119,0.156605,0.470323,1.024784,90.938063,-81.939006,-87.905193
05429,889877,10.430172,2.339528,-0.685917,-0.084308,-0.083864,0.171079,0.159792,0.478915,1.042261,91.246620,-82.035115,-88.266515
05430,889977,10.400904,2.082290,-0.955473,-0.132979,-0.136461,0.151401,0.162946,0.473533,1.059527,91.750682,-82.118803,-88.853204
05431,890077,10.567144,1.794854,-1.235110,-0.214711,-0.208601,0.138968,0.157802,0.465753,1.067141,92.518494,-82.192930,-89.753192
05432,890177,10.879499,1.599812,-1.164185,-0.277286,-0.252642,0.134671,0.157043,0.459630,1.080356,93.450426,-82.261456,-90.854771
05433,890277,11.136798,1.629781,-0.890286,-0.296005,-0.259137,0.137465,0.149357,0.448781,1.090316,94.417914,-82.328845,-92.002815
05434,890377,11.241932,1.681187,-0.612525,-0.268892,-0.244412,0.139452,0.138196,0.439504,1.099852,95.357305,-82.395516,-93.106613
05435,890477,11.149961,1.717239,-0.395006,-0.209811,-0.227096,0.128022,0.130525,0.426710,1.108711,96.268469,-82.454299,-94.147596
05436,890577,10.862714,1.647792,-0.151616,-0.130108,-0.205680,0.103956,0.120350,0.416896,1.118721,97.134775,-82.498682,-95.097133
05437,890677,10.546680,1.358235,0.011223,-0.036043,-0.164948,0.076121,0.111694,0.410096,1.127884,97.872400,-82.528556,-95.862457
05438,890777,10.211666,1.072888,0.051974,0.071610,-0.101766,0.052610,0.108578,0.406342,1.134203,98.388551,-82.549125,-96.342193
05439,890877,9.733641,0.869890,-0.099047,0.177747,-0.035331,0.039453,0.105943,0.403529,1.141572,98.671102,-82.567452,-96.525022
05440,890977,9.265829,0.795484,-0.452581,0.262647,0.018406,0.039017,0.104697,0.403891,1.155117,98.769351,-82.590123,-96.472930
05441,891077,8.929620,0.836593,-0.901397,0.316375,0.033162,0.047768,0.106623,0.407653,1.159320,98.840042,-82.619055,-96.361976
05442,891177,8.757037,0.913483,-1.208270,0.341951,0.014684,0.065145,0.111105,0.412540,1.160075,99.018335,-82.656210,-96.344690
05443,891277,8.678757,1.023308,-1.291499,0.342026,-0.006848,0.082731,0.113668,0.411697,1.156026,99.305088,-82.701355,-96.436644
05444,891377,8.724099,1.107369,-1.329328,0.319393,-0.010026,0.096555,0.115738,0.418809,1.152884,99.605635,-82.753953,-96.555486
05445,891477,8.854720,1.093271,-1.365185,0.283447,-0.001087,0.108268,0.116987,0.419941,1.139415,99.857674,-82.813956,-96.646099
05446,891577,9.007236,1.100194,-1.356448,0.241656,0.023646,0.113971,0.117792,0.420230,1.122896,99.981451,-82.879580,-96.631488
05447,891677,9.148780,1.117333,-1.319237,0.203973,0.050645,0.109956,0.116717,0.421836,1.100430,99.958282,-82.945616,-96.490482
05448,891777,9.141317,1.182908,-1.339024,0.174214,0.074403,0.095214,0.115548,0.422204,1.082911,99.795389,-83.005637,-96.225814
05449,891877,9.173928,1.283835,-1.336304,0.150247,0.087929,0.070386,0.113565,0.421077,1.055294,99.532951,-83.052812,-95.874640
05450,891977,9.229346,1.339486,-1.269120,0.132717,0.097819,0.040045,0.109017,0.419797,1.031674,99.187250,-83.083528,-95.449653
05451,892077,9.411135,1.319939,-1.139032,0.115122,0.107377,0.006813,0.102397,0.415366,1.011900,98.759349,-83.095941,-94.951968
05452,892177,9.633981,1.218304,-0.991973,0.098947,0.122342,-0.019946,0.097227,0.417743,0.995481,98.232282,-83.093957,-94.363676
05453,892277,9.842544,1.114694,-0.840307,0.087172,0.141013,-0.036504,0.089006,0.410580,0.981078,97.601040,-83.083336,-93.677197
05454,892377,10.045750,1.078011,-0.786727,0.088841,0.174852,-0.048693,0.076236,0.408776,0.970951,96.807663,-83.067193,-92.826377
05455,892477,10.126313,1.028435,-0.727772,0.096645,0.208661,-0.060656,0.063891,0.401813,0.964068,95.858969,-83.044818,-91.814526
05456,892577,10.188259,0.959434,-0.647022,0.102457,0.229695,-0.073310,0.048519,0.399261,0.959913,94.817146,-83.014226,-90.705421
05457,892677,10.256865,0.897725,-0.486408,0.093043,0.245840,-0.083436,0.038075,0.393521,0.958105,93.701696,-82.976011,-89.527483
05458,892777,10.259964,0.946041,-0.392789,0.076235,0.246702,-0.079244,0.024720,0.389017,0.952349,92.586382,-82.937435,-88.359287
05459,892877,10.180765,1.016354,-0.253371,0.062082,0.206699,-0.068322,0.016267,0.387207,0.951245,91.661096,-82.901723,-87.390657
05460,892977,10.051859,1.037130,-0.140348,0.066763,0.164779,-0.056539,0.010329,0.378478,0.947787,90.940904,-82.870507,-86.625946
05461,893077,9.865143,0.919079,-0.113204,0.082168,0.125772,-0.053283,0.002921,0.377768,0.944236,90.414071,-82.839867,-86.047171
05462,893177,9.636034,0.791077,-0.081099,0.110286,0.093641,-0.054856,0.000926,0.371347,0.943405,90.053974,-82.807697,-85.620192
05463,893277,9.466030,0.652313,0.018034,0.144705,0.081553,-0.057806,-0.004550,0.367472,0.942700,89.771763,-82.773553,-85.251840
05464,893377,9.305162,0.618200,0.022126,0.183567,0.089564,-0.056969,-0.000998,0.367585,0.939203,89.478759,-82.739631,-84.850165
05465,893477,9.194647,0.618180,0.020327,0.213180,0.090701,-0.055635,0.000024,0.366646,0.937653,89.200738,-82.706217,-84.446490
05466,893577,9.258560,0.683750,0.057534,0.230012,0.097373,-0.055703,0.004559,0.369684,0.935308,88.905731,-82.672449,-84.015966
05467,893677,9.337619,0.827455,0.121838,0.228674,0.113806,-0.047888,0.008567,0.372160,0.934436,88.539510,-82.642635,-83.514408
05468,893777,9.298465,0.991656,0.095302,0.214629,0.122345,-0.039699,0.014667,0.378831,0.928771,88.129837,-82.616937,-82.977135
05469,893877,9.234595,1.144044,0.088278,0.192132,0.118224,-0.037044,0.019690,0.380841,0.926874,87.728273,-82.592358,-82.461016
05470,893977,9.122286,1.199546,0.083346,0.162052,0.103627,-0.035089,0.022295,0.388042,0.921733,87.376202,-82.568820,-82.012161
05471,894077,9.048977,1.222400,0.062486,0.132714,0.081720,-0.039522,0.025966,0.392928,0.912467,87.106683,-82.543034,-81.663489
05472,894177,9.039720,1.184191,0.044501,0.109370,0.060207,-0.041842,0.027645,0.397348,0.903174,86.920201,-82.516385,-81.412035
05473,894277,9.069029,1.049343,0.092173,0.087017,0.044494,-0.043241,0.026298,0.402217,0.895905,86.791011,-82.489340,-81.231280
05474,894377,9.075228,0.916133,0.119384,0.068408,0.022703,-0.044508,0.028425,0.404516,0.889010,86.746799,-82.462240,-81.147003
05475,894477,9.071452,0.893614,0.145711,0.059823,-0.002096,-0.047081,0.023637,0.404104,0.878462,86.805575,-82.434471,-81.171593
05476,894577,9.092232,0.921417,0.174765,0.064044,-0.026473,-0.052404,0.022255,0.404915,0.872489,86.972296,-82.404409,-81.302665
05477,894677,9.127335,0.968551,0.184315,0.075960,-0.051662,-0.059549,0.019368,0.404729,0.866965,87.253796,-82.370919,-81.542679
05478,894777,9.164886,0.945141,0.143231,0.085579,-0.082622,-0.071385,0.012492,0.402115,0.861312,87.672311,-82.331247,-81.915420
05479,894877,9.233730,0.886443,0.191660,0.091274,-0.114017,-0.079325,0.006134,0.401037,0.854737,88.223868,-82.287255,-82.419182
05480,894977,9.345496,0.839270,0.392427,0.094370,-0.140749,-0.076628,-0.001736,0.399933,0.849160,88.883345,-82.244487,-83.030163
05481,895077,9.472197,0.746292,0.582264,0.079519,-0.137269,-0.069840,-0.009554,0.396483,0.840458,89.512468,-82.204660,-83.619222
05482,895177,9.570123,0.711460,0.678388,0.062280,-0.125472,-0.064835,-0.018789,0.395242,0.827858,90.076365,-82.166852,-84.152543
05483,895277,9.654154,0.759327,0.601465,0.043489,-0.114631,-0.053326,-0.025641,0.390708,0.820605,90.579727,-82.135004,-84.635740
05484,895377,9.589260,0.879446,0.530808,0.033099,-0.103782,-0.041613,-0.029919,0.391807,0.809633,91.029174,-82.109408,-85.070609
05485,895477,9.444338,0.967545,0.436590,0.032216,-0.103410,-0.034744,-0.037119,0.388164,0.794408,91.474405,-82.087289,-85.501808
05486,895577,9.367182,0.954024,0.375136,0.020266,-0.115481,-0.040506,-0.041803,0.388515,0.778388,91.959097,-82.061184,-85.979830
05487,895677,9.335081,0.902499,0.404509,-0.000865,-0.137063,-0.047958,-0.044066,0.386168,0.765739,92.515443,-82.029736,-86.542511
05488,895777,9.376629,0.869786,0.471336,-0.016060,-0.158743,-0.056357,-0.043815,0.386818,0.752244,93.144977,-81.992065,-87.187993
05489,895877,9.353188,0.857382,0.525563,-0.022851,-0.173540,-0.065123,-0.045038,0.388038,0.737775,93.822029,-81.947849,-87.885521
05490,895977,9.350964,0.840889,0.541560,-0.017380,-0.191804,-0.070594,-0.041849,0.391486,0.727432,94.566151,-81.898540,-88.647770
05491,896077,9.361311,0.818388,0.649466,-0.015128,-0.211141,-0.074254,-0.044189,0.392907,0.719486,95.377931,-81.844735,-89.477235
05492,896177,9.384929,0.818353,0.780142,-0.017965,-0.217488,-0.082918,-0.039412,0.396572,0.704146,96.198486,-81.783963,-90.317414
05493,896277,9.502054,0.848074,0.895971,-0.020238,-0.199518,-0.091395,-0.040162,0.399705,0.691277,96.931073,-81.717932,-91.070252
05494,896377,9.544565,0.905317,0.839917,-0.016358,-0.176060,-0.105235,-0.035969,0.401666,0.680359,97.556085,-81.644459,-91.712350
05495,896477,9.632534,0.917752,0.742845,-0.008769,-0.159038,-0.113090,-0.032257,0.403186,0.668416,98.104851,-81.566914,-92.273194
05496,896577,9.638559,0.946087,0.680068,-0.002863,-0.146535,-0.118072,-0.030116,0.408498,0.661173,98.596626,-81.486848,-92.773190
05497,896677,9.549226,0.964086,0.641931,-0.005335,-0.141082,-0.123176,-0.030451,0.411904,0.652829,99.054240,-81.403769,-93.240260
05498,896777,9.407508,0.919628,0.611329,-0.023806,-0.130424,-0.124220,-0.030390,0.414540,0.649957,99.452330,-81.320570,-93.658010
05499,896877,9.354709,0.901952,0.546264,-0.040458,-0.115784,-0.128324,-0.026866,0.414581,0.647959,99.776929,-81.236064,-94.011230
05500,896977,9.365649,0.895880,0.465484,-0.051251,-0.107186,-0.136293,-0.025868,0.415561,0.648010,100.052593,-81.147633,-94.321342
05501,897077,9.469639,0.928431,0.485887,-0.053177,-0.083693,-0.146348,-0.023835,0.422577,0.646867,100.230637,-81.055719,-94.533910
05502,897177,9.652857,1.032143,0.563586,-0.052264,-0.042102,-0.154693,-0.022798,0.425149,0.644995,100.252393,-80.963283,-94.587847
05503,897277,9.912410,1.180964,0.786424,-0.068047,0.019232,-0.167236,-0.023325,0.429545,0.647223,100.041195,-80.869981,-94.415134
05504,897377,10.349097,1.365720,0.955124,-0.099925,0.083753,-0.177777,-0.019462,0.433628,0.654449,99.584968,-80.776872,-94.012769
05505,897477,10.857060,1.688070,1.051872,-0.133409,0.139389,-0.187314,-0.019023,0.436939,0.658126,98.921052,-80.682871,-93.419395
05506,897577,11.318131,1.997492,1.123086,-0.147852,0.192881,-0.197226,-0.014655,0.445499,0.665582,98.073567,-80.586527,-92.648289
05507,897677,11.596808,2.295176,1.100722,-0.151010,0.235318,-0.205934,-0.012984,0.447116,0.683203,97.093050,-80.486449,-91.744011
05508,897777,11.594633,2.387421,1.092208,-0.173522,0.238661,-0.220826,-0.007298,0.449738,0.699377,96.102857,-80.375568,-90.842794
05509,897877,11.496187,2.176788,1.081101,-0.208052,0.220114,-0.244706,-0.004267,0.453959,0.724647,95.169125,-80.247522,-90.018685
05510,897977,11.287234,1.838058,1.033170,-0.232080,0.191868,-0.264343,0.001287,0.455248,0.747767,94.332307,-80.104793,-89.306657
05511,898077,11.233092,1.505483,0.953852,-0.215813,0.171677,-0.277097,0.011256,0.460258,0.775090,93.589427,-79.952313,-88.680319
05512,898177,11.365972,1.268412,0.532471,-0.180959,0.176781,-0.277993,0.018705,0.464738,0.803886,92.870490,-79.798114,-88.057794
05513,898277,11.478919,1.151968,-0.071457,-0.152383,0.166106,-0.259730,0.022273,0.469545,0.827183,92.223539,-79.652804,-87.491528
05514,898377,11.470290,1.072054,-0.526191,-0.128201,0.119239,-0.218308,0.030677,0.476380,0.858606,91.756138,-79.529307,-87.093490
05515,898477,11.432498,1.082605,-0.650796,-0.083232,0.068241,-0.182396,0.028319,0.479434,0.878801,91.483553,-79.425093,-86.867241
05516,898577,11.413650,1.291081,-0.529447,-0.038301,0.021847,-0.170696,0.029470,0.484474,0.898098,91.383287,-79.326785,-86.790043
05517,898677,11.558741,1.454618,-0.447984,-0.004667,-0.019790,-0.163515,0.025727,0.491802,0.912998,91.429771,-79.232001,-86.842557
05518,898777,11.599381,1.656382,-0.422060,0.011369,-0.030331,-0.162648,0.020986,0.492694,0.927068,91.516109,-79.137550,-86.926298
05519,898877,11.426049,1.886244,-0.328639,0.036278,-0.020366,-0.165783,0.017961,0.503558,0.930624,91.585486,-79.041438,-86.978242
05520,898977,11.210473,2.079959,-0.261897,0.059453,0.002601,-0.163992,0.010440,0.507020,0.933799,91.599866,-78.946711,-86.960630
05521,899077,10.889161,2.138135,-0.111016,0.069418,0.019903,-0.152480,0.011924,0.516888,0.935807,91.570594,-78.858851,-86.892699
05522,899177,10.559199,2.099294,0.044608,0.041470,0.039041,-0.132026,0.008979,0.525976,0.934764,91.472425,-78.782981,-86.770842
05523,899277,10.162331,2.059851,0.124621,-0.018976,0.062777,-0.101642,0.013004,0.537918,0.934375,91.275071,-78.724779,-86.583144
05524,899377,9.642534,2.015584,0.129591,-0.104352,0.082886,-0.061300,0.018009,0.551291,0.935062,90.975439,-78.689752,-86.341003
05525,899477,8.946496,1.891782,0.050114,-0.183048,0.110238,-0.020706,0.024105,0.565886,0.930803,90.555578,-78.677892,-86.022206
05526,899577,8.367118,1.680608,-0.241529,-0.234805,0.128388,0.021275,0.035644,0.580796,0.928570,90.055236,-78.689634,-85.651551
05527,899677,7.951014,1.484763,-0.672096,-0.257705,0.127279,0.058237,0.049237,0.598807,0.923491,89.543371,-78.721909,-85.282500
05528,899777,7.616048,1.429766,-1.016948,-0.257140,0.112359,0.086295,0.067044,0.615365,0.905816,89.071137,-78.769739,-84.953497
05529,899877,7.333590,1.488011,-1.270516,-0.238787,0.103470,0.107695,0.085919,0.630605,0.884068,88.630426,-78.829412,-84.645864
05530,899977,7.298525,1.668261,-1.388395,-0.211467,0.123279,0.114397,0.101415,0.644197,0.856218,88.143098,-78.892115,-84.274703
05531,900077,7.505551,2.001378,-1.509452,-0.168828,0.151422,0.111343,0.112630,0.656396,0.817271,87.593330,-78.951811,-83.814953
05532,900177,8.004293,2.408708,-1.583829,-0.125818,0.189806,0.107503,0.118361,0.666689,0.778219,86.950416,-79.007333,-83.235122
05533,900277,8.513104,2.796785,-1.503532,-0.086110,0.229005,0.102030,0.123579,0.667524,0.738685,86.209370,-79.057034,-82.532085
05534,900377,8.936424,3.028193,-1.246589,-0.049636,0.258695,0.104170,0.119920,0.667746,0.694100,85.394265,-79.104881,-81.732290
05535,900477,9.397036,2.998744,-1.017300,-0.006800,0.282854,0.102669,0.114599,0.661603,0.657706,84.525399,-79.148415,-80.852738
05536,900577,9.792252,2.827039,-0.923171,0.034491,0.300208,0.102103,0.103667,0.659670,0.629035,83.621906,-79.188021,-79.913835
05537,900677,10.030575,2.616649,-0.974079,0.061094,0.309894,0.103503,0.093656,0.651574,0.603559,82.697752,-79.224937,-78.938375
05538,900777,10.119527,2.445615,-0.954466,0.074355,0.306929,0.109785,0.083565,0.651707,0.583513,81.781135,-79.262707,-77.962856
05539,900877,10.285348,2.301226,-0.780269,0.074266,0.306396,0.113259,0.075005,0.645459,0.560638,80.858020,-79.299559,-76.980794
05540,900977,10.455224,2.167589,-0.584884,0.073579,0.311300,0.122951,0.067474,0.647216,0.537170,79.908371,-79.338425,-75.972169
05541,901077,10.434967,2.182517,-0.470471,0.069051,0.301150,0.129519,0.059422,0.646939,0.514600,78.975868,-79.378979,-74.983686
05542,901177,10.292179,2.257434,-0.425479,0.050179,0.256093,0.132781,0.051432,0.650295,0.489209,78.158640,-79.423688,-74.123534
05543,901277,10.030193,2.295989,-0.294808,0.022328,0.191913,0.127343,0.045058,0.648483,0.456542,77.515209,-79.471076,-73.456456
05544,901377,9.700733,2.265116,-0.165590,-0.008941,0.121735,0.112198,0.042719,0.654178,0.422257,77.070303,-79.517679,-73.009542
05545,901477,9.328963,2.157273,-0.062900,-0.038171,0.052388,0.092370,0.036994,0.654238,0.381670,76.828768,-79.561696,-72.786474
05546,901577,9.059137,2.041436,0.043525,-0.062404,-0.005091,0.070482,0.033758,0.663678,0.342565,76.761777,-79.600915,-72.754979
05547,901677,8.872179,1.915013,0.171849,-0.076429,-0.035793,0.054973,0.030624,0.662967,0.296429,76.791147,-79.635504,-72.829589
05548,901777,8.670415,1.719285,0.230088,-0.078018,-0.044860,0.045463,0.024906,0.666515,0.256020,76.854498,-79.665960,-72.939643
05549,901877,8.488572,1.547574,0.220037,-0.064006,-0.044957,0.039084,0.020674,0.671510,0.216186,76.931245,-79.692845,-73.055131
05550,901977,8.468558,1.541701,0.195428,-0.043911,-0.056510,0.034664,0.015316,0.670728,0.182570,77.058723,-79.718716,-73.210454
05551,902077,8.538008,1.653304,0.193455,-0.031582,-0.090962,0.027418,0.010485,0.670508,0.147480,77.305461,-79.744825,-73.479769
05552,902177,8.713476,1.869729,0.204353,-0.040936,-0.136752,0.016476,0.005562,0.670545,0.117414,77.697595,-79.770223,-73.902233
05553,902277,8.999140,2.053454,0.287950,-0.068240,-0.166194,-0.000952,-0.004330,0.667222,0.086169,78.179140,-79.788804,-74.431391
05554,902377,9.184976,2.145703,0.288190,-0.085932,-0.178887,-0.024323,-0.008348,0.667999,0.061152,78.706549,-79.794892,-75.017405
05555,902477,9.250312,2.231738,0.167118,-0.094544,-0.183653,-0.047440,-0.018897,0.664274,0.038404,79.258232,-79.787520,-75.633061
05556,902577,9.253509,2.279803,0.028540,-0.092120,-0.184818,-0.074345,-0.025971,0.658477,0.016054,79.829109,-79.764037,-76.266787
05557,902677,9.288711,2.282322,-0.010349,-0.088513,-0.183441,-0.098384,-0.036686,0.654817,0.002327,80.407582,-79.725719,-76.906146
05558,902777,9.436729,2.237268,0.147481,-0.077801,-0.161241,-0.116998,-0.042108,0.650589,-0.001402,80.927784,-79.673721,-77.480098
05559,902877,9.594913,2.216130,0.314190,-0.057508,-0.113598,-0.132581,-0.049037,0.644865,-0.004708,81.314057,-79.607876,-77.906173
05560,902977,9.674507,2.244955,0.454518,-0.045129,-0.069165,-0.138630,-0.052584,0.636828,-0.002616,81.568572,-79.534384,-78.191156
05561,903077,9.728017,2.235794,0.602069,-0.042251,-0.029863,-0.136054,-0.049768,0.633358,0.006229,81.700031,-79.458900,-78.349386
05562,903177,9.697015,2.130656,0.594939,-0.058768,-0.002787,-0.126247,-0.046549,0.634099,0.020801,81.733774,-79.386698,-78.417890
05563,903277,9.596565,1.966966,0.600385,-0.071632,-0.006713,-0.121989,-0.039885,0.632197,0.037246,81.769421,-79.317225,-78.495866
05564,903377,9.649101,1.770592,0.547531,-0.068931,-0.007742,-0.116707,-0.032237,0.633221,0.054843,81.806670,-79.250822,-78.573942
05565,903477,9.668666,1.729616,0.444875,-0.055426,0.010026,-0.107273,-0.022147,0.633088,0.074889,81.794135,-79.188314,-78.593499
05566,903577,9.488314,1.831011,0.403138,-0.029258,0.029209,-0.097295,-0.012922,0.633806,0.087963,81.735601,-79.129892,-78.550970
05567,903677,9.331304,1.899372,0.428364,-0.003012,0.038805,-0.089918,-0.007560,0.640856,0.095343,81.661242,-79.074848,-78.477011
05568,903777,9.205541,1.935713,0.439529,0.006820,0.036233,-0.080839,0.001744,0.639299,0.103792,81.596831,-79.025148,-78.407443
05569,903877,9.145553,1.865370,0.472866,0.011247,0.021155,-0.068134,0.011540,0.644662,0.113596,81.573938,-78.983903,-78.377588
05570,903977,9.155149,1.758548,0.526826,0.013601,0.012738,-0.054478,0.018410,0.648747,0.119825,81.571116,-78.951102,-78.366825
05571,904077,9.208174,1.653914,0.496766,0.027346,0.020509,-0.040564,0.030174,0.650542,0.130451,81.547714,-78.925534,-78.327095
05572,904177,9.204124,1.676147,0.450045,0.042872,0.024776,-0.025599,0.041450,0.653367,0.140629,81.514549,-78.908084,-78.268368
05573,904277,9.153576,1.806113,0.425150,0.040462,0.025085,-0.015121,0.048211,0.653200,0.152152,81.474712,-78.896538,-78.204260
05574,904377,9.152268,2.024494,0.536123,0.023212,0.028518,-0.008499,0.055467,0.656988,0.164378,81.412313,-78.888438,-78.127240
05575,904477,9.214716,2.234272,0.685718,-0.003739,0.040415,-0.003716,0.070838,0.658543,0.168483,81.298174,-78.881997,-78.013241
05576,904577,9.162260,2.308258,0.766958,-0.013146,0.053174,0.001197,0.075202,0.664612,0.175812,81.139827,-78.877168,-77.859697
05577,904677,9.164373,2.266664,0.792636,-0.002406,0.061484,0.009136,0.086638,0.668344,0.177518,80.960214,-78.876001,-77.678228
05578,904777,9.170580,2.100674,0.828962,0.008988,0.057392,0.014124,0.093070,0.669615,0.180095,80.796597,-78.877920,-77.506441
05579,904877,9.339329,1.929456,0.912874,0.018684,0.047121,0.017530,0.097188,0.676840,0.173955,80.666389,-78.882627,-77.363089
05580,904977,9.489298,1.832322,0.947467,0.013001,0.050822,0.034015,0.098161,0.673787,0.174802,80.514209,-78.896238,-77.200723
05581,905077,9.500764,1.891967,0.925542,0.004264,0.059588,0.052195,0.104647,0.674705,0.174355,80.322419,-78.919188,-77.003154
05582,905177,9.558033,1.926048,0.857496,0.000737,0.066506,0.064010,0.106573,0.674006,0.177829,80.101849,-78.947999,-76.778380
05583,905277,9.508674,1.930852,0.827947,0.011252,0.065408,0.070410,0.110426,0.672610,0.184777,79.886006,-78.980364,-76.552347
05584,905377,9.484611,1.869636,0.843992,0.036327,0.059748,0.077662,0.113677,0.669959,0.197171,79.695838,-79.017238,-76.337901
05585,905477,9.404859,1.683630,0.891997,0.070513,0.048920,0.084866,0.115397,0.673191,0.212369,79.551575,-79.059171,-76.150346
05586,905577,9.263586,1.496072,1.024492,0.094361,0.028293,0.094705,0.120166,0.668596,0.223163,79.474673,-79.108729,-76.017576
05587,905677,9.192423,1.430016,1.232510,0.115370,0.008361,0.101724,0.121016,0.669690,0.231236,79.463602,-79.164310,-75.939697
05588,905777,9.175896,1.427217,1.401880,0.125366,0.011665,0.111357,0.127964,0.670503,0.232789,79.442668,-79.224967,-75.846067
05589,905877,9.099718,1.572154,1.485283,0.132175,0.019241,0.120526,0.132967,0.672465,0.231893,79.397280,-79.289981,-75.723701
05590,905977,8.995697,1.751695,1.507821,0.125833,0.021162,0.125845,0.137507,0.678493,0.229700,79.338410,-79.357764,-75.591439
05591,906077,8.968879,1.839090,1.575022,0.108567,0.017755,0.130446,0.147603,0.685623,0.223561,79.275975,-79.428472,-75.465747
05592,906177,8.977616,1.856677,1.588467,0.097160,0.003876,0.134105,0.156744,0.695357,0.215550,79.245690,-79.502700,-75.379533
05593,906277,8.987535,1.823382,1.536993,0.102867,-0.017864,0.134506,0.167326,0.700961,0.209835,79.284091,-79.579472,-75.359961
05594,906377,9.015984,1.849079,1.532895,0.123447,-0.048546,0.127204,0.181890,0.714922,0.205553,79.433288,-79.655383,-75.441143
05595,906477,9.018651,1.911975,1.507748,0.144169,-0.076980,0.116414,0.198453,0.722922,0.199967,79.690623,-79.728111,-75.620243
05596,906577,9.054345,1.966482,1.507213,0.156988,-0.097230,0.103383,0.214027,0.739882,0.195337,80.029084,-79.795363,-75.874370
05597,906677,9.153225,1.985547,1.577400,0.151058,-0.090570,0.094928,0.231510,0.746179,0.193674,80.351513,-79.856927,-76.115708
05598,906777,9.257545,1.985006,1.652372,0.141361,-0.066493,0.097810,0.250002,0.764891,0.193145,80.593680,-79.917623,-76.281221
05599,906877,9.410721,1.935592,1.709123,0.144737,-0.037293,0.102401,0.269456,0.774572,0.193160,80.744356,-79.978101,-76.351936
05600,906977,9.617836,1.902192,1.764784,0.150686,-0.029584,0.108396,0.288432,0.785305,0.192225,80.871781,-80.041232,-76.395690
05601,907077,9.867395,1.852341,1.939904,0.157886,-0.033163,0.113198,0.305385,0.795001,0.192738,81.013483,-80.107383,-76.449883
05602,907177,10.280040,1.810608,2.173650,0.159027,0.003921,0.119387,0.324313,0.810073,0.195031,81.032710,-80.173707,-76.379257
05603,907277,10.750186,1.916981,2.073044,0.172487,0.094359,0.112945,0.348288,0.825235,0.193827,80.765436,-80.228161,-76.010230
05604,907377,10.892056,2.383409,1.592165,0.200265,0.166000,0.097850,0.374520,0.850170,0.206651,80.282904,-80.266909,-75.406785
05605,907477,10.692712,2.901332,0.975213,0.197966,0.145031,0.079895,0.401353,0.864948,0.212445,79.874606,-80.296786,-74.880064
05606,907577,10.536501,3.150534,0.686446,0.130073,0.073821,0.066174,0.432518,0.888687,0.227720,79.668218,-80.325685,-74.597660
05607,907677,10.678812,3.034618,0.549287,0.005428,0.014610,0.062857,0.460954,0.908874,0.255336,79.587185,-80.358694,-74.514849
05608,907777,10.931687,2.746618,0.241539,-0.124076,-0.034637,0.057123,0.484297,0.917938,0.287390,79.598713,-80.393556,-74.601142
05609,907877,11.253491,2.682585,-0.012743,-0.206900,-0.102518,0.046801,0.506020,0.929679,0.326593,79.796280,-80.429526,-74.924160
05610,907977,11.806256,2.751185,-0.023514,-0.212817,-0.137770,0.036084,0.518536,0.931517,0.377306,80.117140,-80.462726,-75.375545
05611,908077,12.400904,2.695610,-0.005905,-0.165464,-0.132560,0.027689,0.524949,0.924691,0.433583,80.455022,-80.490250,-75.816580
05612,908177,12.579903,2.586854,-0.176745,-0.118104,-0.138475,0.030131,0.523190,0.918957,0.500930,80.841042,-80.519244,-76.278806
05613,908277,12.382964,2.535422,-0.325565,-0.109364,-0.193258,0.022241,0.509955,0.908398,0.568518,81.425151,-80.547963,-76.936659
05614,908377,12.063903,2.413628,-0.463991,-0.140266,-0.277043,0.010656,0.498222,0.896843,0.635557,82.287214,-80.575548,-77.894088
05615,908477,11.601733,2.144275,-0.467413,-0.191773,-0.361039,0.014743,0.478071,0.876623,0.698637,83.412102,-80.608725,-79.147678
05616,908577,11.130117,1.737375,-0.365934,-0.233200,-0.410050,0.025346,0.454889,0.853364,0.763562,84.687391,-80.646565,-80.577586
05617,908677,10.801532,1.374470,-0.394010,-0.234612,-0.429919,0.034089,0.430830,0.834894,0.822719,86.039234,-80.684979,-82.085706
05618,908777,10.444765,1.158944,-0.493246,-0.191349,-0.429486,0.051740,0.406903,0.812800,0.874176,87.422627,-80.727638,-83.600472
05619,908877,9.945469,1.090484,-0.459687,-0.103499,-0.403754,0.067710,0.386147,0.793607,0.916263,88.777091,-80.773106,-85.034715
05620,908977,9.336538,1.193573,-0.456700,0.014840,-0.358227,0.064749,0.364017,0.774751,0.951853,90.051169,-80.811318,-86.318635
05621,909077,8.632750,1.280554,-0.560167,0.140267,-0.322630,0.045562,0.353012,0.760614,0.979178,91.279256,-80.834283,-87.483014
05622,909177,8.001945,1.179705,-0.770534,0.241144,-0.298259,0.029386,0.345880,0.749901,0.986140,92.481619,-80.844505,-88.562672
05623,909277,7.667027,1.029924,-0.977779,0.307987,-0.234856,0.027615,0.343930,0.748060,0.983539,93.498892,-80.852281,-89.415957
05624,909377,7.626731,0.899725,-1.289957,0.361266,-0.145745,0.030754,0.349075,0.740467,0.973637,94.232471,-80.863223,-89.950857
05625,909477,7.839877,0.898011,-1.733906,0.387348,-0.052056,0.035315,0.351941,0.732969,0.952214,94.650733,-80.880075,-90.151100
05626,909577,8.234852,0.867611,-2.202584,0.381802,0.012721,0.036022,0.354382,0.724177,0.926717,94.836417,-80.900233,-90.118823
05627,909677,8.828740,0.903385,-2.455604,0.346928,0.030260,0.037348,0.350060,0.714554,0.889645,94.940289,-80.922019,-90.023730
05628,909777,9.549709,1.109203,-2.421894,0.280871,0.007593,0.053454,0.342126,0.702183,0.858943,95.092617,-80.951895,-90.015838
05629,909877,10.186677,1.435533,-2.212796,0.191166,-0.024313,0.065302,0.331596,0.688591,0.833687,95.312650,-80.986877,-90.128357
05630,909977,10.639596,1.758460,-1.971254,0.088913,-0.044283,0.067726,0.312487,0.668888,0.813622,95.548284,-81.022086,-90.315801
05631,910077,10.821212,2.063060,-1.776061,0.002988,-0.044547,0.049853,0.294112,0.653454,0.808305,95.730781,-81.046978,-90.499107
05632,910177,10.653716,2.278418,-1.611938,-0.042988,-0.037533,0.019688,0.272652,0.635834,0.807884,95.851298,-81.055000,-90.646168
05633,910277,10.325839,2.255777,-1.540630,-0.045227,-0.037219,-0.015140,0.250581,0.617434,0.813434,95.956499,-81.043141,-90.778865
05634,910377,10.065926,2.015822,-1.497659,-0.017792,-0.049213,-0.044461,0.225855,0.595177,0.827303,96.109110,-81.013803,-90.943509
05635,910477,9.888130,1.688645,-1.329504,0.021724,-0.079085,-0.060131,0.203655,0.571980,0.839123,96.384263,-80.973579,-91.209201
05636,910577,9.702199,1.432414,-0.968144,0.051310,-0.108853,-0.065817,0.179793,0.548373,0.859938,96.777702,-80.927922,-91.577466
05637,910677,9.499294,1.309824,-0.708680,0.072260,-0.123424,-0.069220,0.159032,0.525506,0.874782,97.229395,-80.878885,-91.992578
05638,910777,9.294377,1.285071,-0.611203,0.087096,-0.126075,-0.072519,0.144669,0.505309,0.894279,97.692696,-80.827254,-92.410866
05639,910877,9.124080,1.246804,-0.573441,0.096698,-0.113724,-0.067052,0.132839,0.483698,0.911201,98.116122,-80.779186,-92.783220
05640,910977,8.968784,1.158402,-0.731680,0.107022,-0.105744,-0.056883,0.121021,0.463108,0.927675,98.518898,-80.737117,-93.128668
05641,911077,8.949404,1.010394,-0.835743,0.108456,-0.106899,-0.039660,0.117597,0.447647,0.948929,98.932443,-80.704308,-93.484192
05642,911177,8.961978,0.892549,-0.883462,0.094333,-0.113150,-0.013500,0.110686,0.432241,0.970181,99.371564,-80.685304,-93.873819
05643,911277,9.055674,0.880227,-0.832523,0.072966,-0.123252,0.007734,0.105892,0.419111,0.985039,99.844110,-80.676830,-94.309706
05644,911377,9.131659,0.953358,-0.744857,0.048886,-0.133031,0.023450,0.099164,0.407152,0.996948,100.345413,-80.675640,-94.788696
05645,911477,9.146303,1.070123,-0.757187,0.035721,-0.144502,0.033573,0.099362,0.394464,1.011333,100.885006,-80.678236,-95.314104
05646,911577,9.073717,1.128564,-0.796715,0.033738,-0.164038,0.036903,0.100742,0.387698,1.016500,101.492892,-80.679679,-95.909829
05647,911677,8.913403,1.081583,-0.857846,0.040643,-0.174766,0.041654,0.104649,0.379993,1.019619,102.144984,-80.681466,-96.546301
05648,911777,8.819820,0.999038,-0.891572,0.051381,-0.185003,0.044881,0.109564,0.374289,1.022340,102.840781,-80.682577,-97.220784
05649,911877,8.877156,0.963008,-0.852176,0.055655,-0.185773,0.045183,0.114614,0.370915,1.018166,103.541981,-80.682423,-97.898227
05650,911977,8.981763,0.985103,-0.793287,0.051134,-0.185294,0.047437,0.119633,0.366472,1.015439,104.240806,-80.682249,-98.575864
05651,912077,9.105323,1.102573,-0.856964,0.037598,-0.187859,0.048442,0.126215,0.363669,1.009291,104.941334,-80.680920,-99.263053
05652,912177,9.251192,1.288703,-0.952202,0.022149,-0.187731,0.047536,0.133744,0.364193,1.006320,105.631456,-80.677758,-99.948625
05653,912277,9.302220,1.476325,-1.069703,0.015093,-0.179353,0.048863,0.140855,0.357991,0.997995,106.290244,-80.675336,-100.606482
05654,912377,9.296605,1.562054,-1.239240,0.003414,-0.180593,0.048376,0.144993,0.360306,0.990101,106.945593,-80.671216,-101.267557
05655,912477,9.358802,1.463271,-1.234188,-0.020913,-0.190935,0.048193,0.150631,0.355670,0.980853,107.620539,-80.663988,-101.962553
05656,912577,9.451802,1.329073,-1.069051,-0.060015,-0.206443,0.049573,0.151832,0.351226,0.969103,108.324726,-80.653411,-102.709855
05657,912677,9.499648,1.201497,-0.893120,-0.095801,-0.225160,0.050381,0.150569,0.345897,0.955803,109.069092,-80.638300,-103.518663
05658,912777,9.556036,1.193330,-0.791037,-0.119987,-0.249005,0.050311,0.151300,0.341035,0.942529,109.874672,-80.616818,-104.403593
05659,912877,9.646446,1.164934,-0.654940,-0.132756,-0.262665,0.047635,0.150642,0.333496,0.923104,110.709810,-80.589121,-105.325972
05660,912977,9.690839,1.114216,-0.537434,-0.120354,-0.244787,0.040348,0.143429,0.327836,0.908277,111.480161,-80.559107,-106.175581
05661,913077,9.664644,1.097882,-0.508818,-0.100601,-0.210077,0.030135,0.142151,0.318996,0.895299,112.132902,-80.529323,-106.894594
05662,913177,9.603861,1.051343,-0.522786,-0.075248,-0.174924,0.019674,0.138347,0.311593,0.884395,112.670910,-80.500448,-107.482653
05663,913277,9.630206,0.990320,-0.569472,-0.046850,-0.140192,0.014246,0.133069,0.304760,0.872517,113.105400,-80.475627,-107.949338
05664,913377,9.679695,0.933524,-0.687700,-0.019972,-0.113374,0.012091,0.125724,0.298265,0.864662,113.466203,-80.455215,-108.325747
05665,913477,9.708054,0.850499,-0.654380,-0.013548,-0.107994,0.014279,0.120397,0.295274,0.855986,113.815372,-80.436804,-108.686682
05666,913577,9.751133,0.834176,-0.523441,-0.025224,-0.110574,0.012780,0.113091,0.294829,0.846936,114.162380,-80.416647,-109.052286
05667,913677,9.683739,0.862049,-0.353900,-0.057138,-0.110039,0.015394,0.109810,0.290456,0.835186,114.491631,-80.397626,-109.418514
05668,913777,9.594626,0.970594,-0.220217,-0.089859,-0.115733,0.016124,0.107040,0.288590,0.823062,114.819246,-80.377279,-109.802197
05669,913877,9.590510,1.087024,-0.171001,-0.105651,-0.107350,0.013989,0.101644,0.288894,0.818563,115.107639,-80.357509,-110.155375
05670,913977,9.581530,1.132257,-0.223569,-0.103412,-0.082975,0.010947,0.100880,0.289014,0.806041,115.317458,-80.341858,-110.427640
05671,914077,9.519767,1.117877,-0.201299,-0.088945,-0.054695,0.007433,0.101582,0.289038,0.795021,115.443861,-80.331203,-110.606963
05672,914177,9.474400,1.075895,-0.050163,-0.066506,-0.017111,0.001457,0.100688,0.289318,0.789522,115.460138,-80.326678,-110.661622
05673,914277,9.479442,1.032307,0.010615,-0.041622,0.021484,-0.007259,0.104316,0.290621,0.782078,115.360898,-80.327142,-110.584731
05674,914377,9.532247,0.995871,0.030744,-0.031355,0.052620,-0.015533,0.107422,0.293851,0.776233,115.160945,-80.330904,-110.399805
05675,914477,9.605695,0.968442,0.068986,-0.027911,0.075743,-0.022982,0.104965,0.296953,0.774885,114.881677,-80.336278,-110.132524
05676,914577,9.696797,0.918732,0.058764,-0.022869,0.094332,-0.029953,0.108939,0.301325,0.776115,114.538298,-80.342238,-109.797386
05677,914677,9.785585,0.889010,0.016720,-0.016139,0.106738,-0.036337,0.113353,0.309507,0.781046,114.151411,-80.347444,-109.414305
05678,914777,9.819299,0.861400,0.020062,-0.008408,0.111906,-0.042257,0.116307,0.315318,0.783851,113.744557,-80.350312,-109.006578
05679,914877,9.828323,0.874778,0.086362,0.003688,0.125767,-0.053637,0.121237,0.323540,0.787783,113.286311,-80.349861,-108.539791
05680,914977,9.847418,0.936386,0.182601,0.011655,0.145453,-0.066068,0.128134,0.332157,0.793241,112.755311,-80.346596,-107.994677
05681,915077,9.895539,1.019403,0.281046,0.013834,0.167621,-0.080139,0.129058,0.338402,0.798069,112.138950,-80.339819,-107.361808
05682,915177,10.016853,1.154128,0.323933,0.017062,0.194849,-0.087103,0.136958,0.350988,0.803730,111.431543,-80.333905,-106.634799
05683,915277,10.171250,1.283712,0.337088,0.021203,0.238572,-0.091803,0.145961,0.361357,0.803267,110.584308,-80.332808,-105.763634
05684,915377,10.404668,1.414297,0.294387,0.026830,0.282475,-0.092026,0.149794,0.369828,0.812722,109.601311,-80.337898,-104.751576
05685,915477,10.708397,1.502351,0.182317,0.034116,0.313752,-0.089032,0.156070,0.377143,0.824626,108.525068,-80.347411,-103.640794
05686,915577,11.007153,1.514018,0.103475,0.034937,0.316066,-0.084192,0.162266,0.387231,0.841180,107.444957,-80.356463,-102.525708
05687,915677,11.220830,1.485651,0.067767,0.036952,0.288994,-0.080640,0.164930,0.391797,0.859454,106.455319,-80.359564,-101.501302
05688,915777,11.227643,1.446927,0.109770,0.045777,0.252871,-0.074028,0.168532,0.405621,0.882209,105.593738,-80.357822,-100.601723
05689,915877,11.039425,1.485750,0.229586,0.074907,0.211136,-0.066245,0.172657,0.413057,0.902634,104.892056,-80.352041,-99.847464
05690,915977,10.717080,1.476486,0.241554,0.101306,0.174111,-0.066209,0.176264,0.424413,0.924762,104.327321,-80.339534,-99.216818
05691,916077,10.326054,1.382195,0.267249,0.111454,0.147410,-0.067567,0.185858,0.436198,0.946417,103.856041,-80.321592,-98.675110
05692,916177,9.986474,1.270649,0.248758,0.101157,0.146728,-0.065381,0.198015,0.452097,0.964778,103.384674,-80.304029,-98.139327
05693,916277,9.775558,1.255611,0.008157,0.086728,0.163849,-0.069432,0.209253,0.464243,0.978437,102.848009,-80.285640,-97.545691
05694,916377,10.006427,1.314995,-0.456461,0.082742,0.184971,-0.059755,0.222523,0.483405,0.990953,102.249145,-80.274300,-96.891228
05695,916477,10.332742,1.575042,-1.021511,0.083491,0.197194,-0.044328,0.230735,0.495502,1.006610,101.622641,-80.271873,-96.208205
05696,916577,10.549257,1.727143,-1.535812,0.075356,0.174684,-0.023621,0.238449,0.507607,1.022267,101.079001,-80.277358,-95.613869
05697,916677,10.634553,1.776566,-1.808527,0.052550,0.093581,0.001106,0.237842,0.514277,1.029120,100.803788,-80.287211,-95.304997
05698,916777,10.564752,1.726720,-1.606236,0.002772,-0.007863,0.025466,0.233720,0.520931,1.037471,100.848712,-80.299748,-95.349735
05699,916877,10.583342,1.578733,-0.965450,-0.047614,-0.075549,0.039428,0.229133,0.524698,1.043671,101.096831,-80.312738,-95.629840
05700,916977,10.412301,1.558242,-0.398334,-0.090510,-0.089276,0.031997,0.226681,0.530789,1.042475,101.361353,-80.319808,-95.951503
05701,917077,10.018081,1.588328,-0.182712,-0.155502,-0.079747,0.018855,0.226228,0.535377,1.040705,101.548784,-80.320370,-96.232743
05702,917177,9.459114,1.673234,-0.258744,-0.226716,-0.076035,0.013854,0.230329,0.543550,1.035615,101.679802,-80.318421,-96.498143
05703,917277,8.839520,1.782038,-0.478260,-0.311161,-0.086568,0.020139,0.238913,0.551154,1.030500,101.801326,-80.318669,-96.802963
05704,917377,8.211933,1.983287,-0.727806,-0.402649,-0.100808,0.036203,0.247541,0.557882,1.022837,101.928489,-80.326131,-97.166611
05705,917477,7.565428,2.276318,-0.983366,-0.501358,-0.112611,0.047764,0.266207,0.559687,1.010423,102.046497,-80.338531,-97.578235
05706,917577,7.051351,2.417657,-1.318469,-0.579475,-0.111755,0.055353,0.279958,0.562237,0.994535,102.123062,-80.355160,-97.993069
05707,917677,6.876814,2.445663,-1.646767,-0.630624,-0.094539,0.062316,0.298731,0.561839,0.975997,102.119396,-80.377708,-98.356065
05708,917777,7.067005,2.533631,-1.911302,-0.650931,-0.066006,0.070018,0.312726,0.555597,0.945632,102.016032,-80.408035,-98.629535
05709,917877,7.613285,2.633427,-2.001739,-0.649058,-0.050667,0.077752,0.320130,0.542218,0.920407,101.868823,-80.444607,-98.857240
05710,917977,8.410123,2.644461,-1.909677,-0.607309,-0.037999,0.088186,0.322621,0.525623,0.891005,101.710941,-80.488606,-99.049673
05711,918077,9.285662,2.551629,-1.727129,-0.528436,-0.031228,0.098078,0.318205,0.504349,0.857347,101.582709,-80.539012,-99.226184
05712,918177,10.120914,2.332737,-1.482877,-0.427812,-0.036646,0.096184,0.305265,0.483562,0.826711,101.529612,-80.587774,-99.420285
05713,918277,10.849032,2.096618,-1.198146,-0.318060,-0.039257,0.073922,0.294627,0.455305,0.805217,101.533630,-80.623751,-99.608449
05714,918377,11.335818,1.920885,-1.019677,-0.216718,-0.043084,0.039996,0.277379,0.435233,0.792150,101.585779,-80.640228,-99.786489
05715,918477,11.659137,1.740489,-1.087305,-0.142625,-0.063471,0.007799,0.259486,0.415781,0.787129,101.727468,-80.636229,-100.012213
05716,918577,11.611203,1.626346,-1.076696,-0.120906,-0.085674,-0.011880,0.239532,0.399656,0.786285,101.942705,-80.618470,-100.299842
05717,918677,11.166426,1.520917,-0.980271,-0.137546,-0.102758,-0.024645,0.223871,0.390901,0.796844,102.195898,-80.591321,-100.635601
05718,918777,10.617569,1.407748,-0.748261,-0.156969,-0.136574,-0.035020,0.204825,0.382965,0.801929,102.542267,-80.553929,-101.077118
05719,918877,10.156490,1.336423,-0.459952,-0.178149,-0.161213,-0.043018,0.191162,0.377666,0.812667,102.949565,-80.508478,-101.592781
05720,918977,9.832173,1.257898,-0.281466,-0.216365,-0.159938,-0.041710,0.178565,0.379970,0.820787,103.327387,-80.463344,-102.100858
05721,919077,9.575439,1.233772,-0.232332,-0.244075,-0.148426,-0.025622,0.176492,0.381778,0.825386,103.660175,-80.428194,-102.579462
05722,919177,9.398762,1.271071,-0.198905,-0.265025,-0.106567,-0.000833,0.176431,0.389058,0.829766,103.860680,-80.412175,-102.936157
05723,919277,9.207321,1.447284,-0.277849,-0.271471,-0.053598,0.022698,0.178552,0.398782,0.824251,103.901753,-80.416401,-103.134935
05724,919377,8.944607,1.633982,-0.386426,-0.263253,-0.006987,0.032369,0.190054,0.408637,0.823263,103.801892,-80.432417,-103.186011
05725,919477,8.880554,1.799674,-0.436475,-0.238457,0.019543,0.030132,0.201656,0.422221,0.817455,103.626596,-80.450811,-103.146174
05726,919577,8.969762,1.915063,-0.480343,-0.203809,0.027951,0.023024,0.212269,0.434847,0.811096,103.437200,-80.466350,-103.071898
05727,919677,9.139901,1.928557,-0.525685,-0.168049,0.020331,0.005500,0.229796,0.450683,0.808416,103.279418,-80.471072,-103.008888
05728,919777,9.333812,1.817382,-0.592683,-0.134518,0.001954,-0.016491,0.243334,0.463592,0.805582,103.184659,-80.461095,-102.990287
